# shotName 7864
# channelId 710
# withTimeColumn no
# dataPoints 8192
# dataType scaled
# dataUnits kPa
# timeStart 0.00000E+0000
# timeAverageWindow 0.00000E+0000
# timeInterval 2.00000E+0000
# timeUnits microseconds
# transducerSensitivity 1.00000E-0004
# transducerSensitivityUnits volts/kPa
# transducerName spa
# transducerSerialNumber 4266
# gain 1.00000E+0000
# qfluxgain 1.00000E+0000
0.0 0.988194285714
2.0 0.776816818182
4.0 0.58382
6.0 -0.6103475
8.0 -1.7089816
10.0 -2.72310538462
12.0 -2.75788333333
14.0 -2.79017714286
16.0 -1.97837793103
18.0 -2.84830533333
20.0 -2.87455709677
22.0 -2.899168125
24.0 -2.18246606061
26.0 -2.225985
28.0 -2.26701714286
30.0 -2.30576972222
32.0 -2.34242756757
34.0 -2.37715605263
36.0 -2.41010358974
38.0 -3.051756
40.0 -4.882811
42.0 -5.49316325
44.0 -4.8828105
46.0 -6.1035155
48.0 -6.7138655
50.0 -6.7138655
52.0 -6.7138655
54.0 -6.7138655
56.0 -4.8828105
58.0 -3.6621055
60.0 -3.05175275
62.0 -3.05175275
64.0 -2.4414
66.0 -1.83104775
68.0 -1.83104775
70.0 -1.83104775
72.0 -3.66210275
74.0 -4.272455
76.0 -4.272455
78.0 -5.49316
80.0 -5.49316
82.0 -5.49316
84.0 -4.88280725
86.0 -4.272455
88.0 -3.66210275
90.0 -2.44139775
92.0 -1.831045
94.0 -1.831045
96.0 -2.44139775
98.0 -2.44139775
100.0 -2.44139775
102.0 -2.44139775
104.0 -4.27245275
106.0 -4.882805
108.0 -4.27245225
110.0 -4.27245225
112.0 -4.27245225
114.0 -4.27245225
116.0 -3.6620995
118.0 -2.4413945
120.0 -0.6103395
122.0 0.6103655
124.0 0.6103655
126.0 1.22071775
128.0 1.22071775
130.0 1.22071775
132.0 0.6103655
134.0 1.32500000003e-05
136.0 -1.83104175
138.0 -3.05174675
140.0 -3.05174675
142.0 -3.05174675
144.0 -3.05174675
146.0 -2.441394
148.0 -1.83104125
150.0 -1.83104125
152.0 0.61036375
154.0 1.220716
156.0 1.220716
158.0 1.83106825
160.0 1.83106825
162.0 1.83106825
164.0 1.83106825
166.0 1.83106825
168.0 0.610366
170.0 -0.610339
172.0 -1.22069175
174.0 -0.610339
176.0 1.37500000001e-05
178.0 1.37500000001e-05
180.0 1.37500000001e-05
182.0 1.37500000001e-05
184.0 1.220716
186.0 2.441421
188.0 2.441421
190.0 2.441421
192.0 3.66212375
194.0 3.66212375
196.0 2.44141875
198.0 1.831066
200.0 1.10000000002e-05
202.0 -1.220694
204.0 -1.83104675
206.0 -2.441399
208.0 -3.05175175
210.0 -3.05175175
212.0 -1.83104675
214.0 -1.2206945
216.0 1.05000000002e-05
218.0 0.61036275
220.0 0.61036275
222.0 1.2207155
224.0 1.2207155
226.0 1.05e-05
228.0 -0.61034225
230.0 -1.2206945
232.0 -3.6620995
234.0 -4.27245175
236.0 -4.27245175
238.0 -4.27245175
240.0 -4.27245175
242.0 -4.27245175
244.0 -4.8828045
246.0 -4.8828045
248.0 -3.0517495
250.0 -3.0517495
252.0 -3.0517495
254.0 -3.66210225
256.0 -3.66210225
258.0 -3.05175
260.0 -3.05175
262.0 -3.66210225
264.0 -4.2724545
266.0 -5.4931595
268.0 -6.10351225
270.0 -5.4931595
272.0 -6.1035095
274.0 -6.71386175
276.0 -5.49315675
278.0 -5.49315675
280.0 -4.2724545
282.0 -3.66210225
284.0 -3.66210225
286.0 -3.05175
288.0 -2.44139725
290.0 -2.44139725
292.0 -3.05175
294.0 -3.66210225
296.0 -4.88280725
298.0 -5.4931595
300.0 -6.10351225
302.0 -6.10351225
304.0 -6.10351225
306.0 -5.49316
308.0 -5.49316
310.0 -4.88280775
312.0 -3.05175275
314.0 -3.05175275
316.0 -3.05175275
318.0 -3.05175275
320.0 -2.44140275
322.0 -3.051755
324.0 -3.051755
326.0 -3.66210725
328.0 -4.88281225
330.0 -4.88281225
332.0 -4.88281225
334.0 -4.88281225
336.0 -5.493165
338.0 -6.10351725
340.0 -6.10351725
342.0 -6.10351725
344.0 -5.493165
346.0 -5.493165
348.0 -5.493165
350.0 -6.10351775
352.0 -5.49316775
354.0 -5.49316775
356.0 -6.1035205
358.0 -6.71387275
360.0 -7.324225
362.0 -7.93457725
364.0 -7.93457725
366.0 -7.93457725
368.0 -8.54493
370.0 -8.54493
372.0 -8.54493
374.0 -7.324225
376.0 -6.10352
378.0 -5.49316775
380.0 -5.49316775
382.0 -6.71387275
384.0 -7.3242255
386.0 -7.3242255
388.0 -7.3242255
390.0 -8.54492775
392.0 -10.37598275
394.0 -10.37598275
396.0 -10.37598275
398.0 -9.76563
400.0 -10.98633275
402.0 -10.3759805
404.0 -10.3759805
406.0 -9.76562825
408.0 -9.155276
410.0 -8.54492375
412.0 -7.934571
414.0 -8.54492325
416.0 -8.54492325
418.0 -8.54492325
420.0 -9.1552755
422.0 -9.7656255
424.0 -10.37597775
426.0 -10.37597775
428.0 -10.37597775
430.0 -10.98633
432.0 -11.59668
434.0 -11.59668
436.0 -11.59668
438.0 -11.59668
440.0 -10.98632775
442.0 -10.3759755
444.0 -10.3759755
446.0 -10.3759755
448.0 -10.3759755
450.0 -11.59667775
452.0 -12.20703
454.0 -14.038085
456.0 -15.86914
458.0 -16.47949225
460.0 -16.47949225
462.0 -15.86914
464.0 -16.47949225
466.0 -17.0898445
468.0 -17.0898445
470.0 -15.86914225
472.0 -15.25879225
474.0 -15.25879225
476.0 -15.25879225
478.0 -15.869145
480.0 -15.869145
482.0 -15.869145
484.0 -15.869145
486.0 -17.08984725
488.0 -17.7001995
490.0 -18.31055175
492.0 -18.9209045
494.0 -18.31055225
496.0 -18.31055225
498.0 -17.7002
500.0 -17.08984775
502.0 -16.47949775
504.0 -15.8691455
506.0 -15.25879325
508.0 -15.25879325
510.0 -14.648441
512.0 -14.038091
514.0 -14.648441
516.0 -14.648441
518.0 -15.8691435
520.0 -16.47949575
522.0 -16.47949575
524.0 -17.089848
526.0 -17.70020025
528.0 -17.0898475
530.0 -16.4794975
532.0 -15.86914525
534.0 -14.648443
536.0 -14.038093
538.0 -14.038093
540.0 -13.42774025
542.0 -13.42774025
544.0 -12.817388
546.0 -12.20703575
548.0 -12.20703575
550.0 -13.427738
552.0 -13.427738
554.0 -13.427738
556.0 -13.427738
558.0 -13.427738
560.0 -13.427738
562.0 -14.03809025
564.0 -14.03809025
566.0 -13.42774025
568.0 -12.20703525
570.0 -12.20703525
572.0 -12.20703525
574.0 -12.20703525
576.0 -12.20703525
578.0 -12.8173875
580.0 -13.42773975
582.0 -14.03808975
584.0 -14.648442
586.0 -15.25879425
588.0 -14.6484415
590.0 -15.25879375
592.0 -16.4794965
594.0 -15.8691465
596.0 -15.25879375
598.0 -13.427739
600.0 -12.207034
602.0 -12.207034
604.0 -11.59668175
606.0 -11.59668175
608.0 -11.59668175
610.0 -11.59668175
612.0 -12.207034
614.0 -13.42773625
616.0 -13.42773625
618.0 -13.42773625
620.0 -14.038089
622.0 -14.64844125
624.0 -14.64844125
626.0 -14.64844125
628.0 -14.64844125
630.0 -13.427739
632.0 -12.207034
634.0 -12.207034
636.0 -11.59668125
638.0 -11.59668125
640.0 -11.59668125
642.0 -11.59668125
644.0 -12.2070335
646.0 -12.8173835
648.0 -14.0380885
650.0 -14.0380885
652.0 -13.42773575
654.0 -14.038088
656.0 -14.038088
658.0 -13.42773575
660.0 -12.8173835
662.0 -11.59668125
664.0 -10.986329
666.0 -10.37597675
668.0 -10.9863295
670.0 -10.9863295
672.0 -10.37597675
674.0 -10.37597675
676.0 -10.9863295
678.0 -12.20703175
680.0 -13.42773675
682.0 -14.038089
684.0 -14.038089
686.0 -14.038089
688.0 -14.64844175
690.0 -14.64844175
692.0 -14.64844175
694.0 -13.4277395
696.0 -12.2070345
698.0 -11.59668225
700.0 -11.59668225
702.0 -10.98633
704.0 -10.98633
706.0 -11.59668225
708.0 -12.2070345
710.0 -13.42773675
712.0 -14.0380895
714.0 -14.0380895
716.0 -15.2587945
718.0 -15.86914675
720.0 -15.86914675
722.0 -15.86914675
724.0 -15.86914675
726.0 -15.25879675
728.0 -14.6484445
730.0 -14.6484445
732.0 -15.8691495
734.0 -15.8691495
736.0 -15.8691495
738.0 -16.47950175
740.0 -17.089854
742.0 -18.31055625
744.0 -18.9209085
746.0 -19.53126075
748.0 -19.53126075
750.0 -19.53126075
752.0 -19.53126075
754.0 -19.53126075
756.0 -20.141613
758.0 -19.531263
760.0 -18.92091075
762.0 -18.3105585
764.0 -18.3105585
766.0 -17.70020625
768.0 -17.70020625
770.0 -17.70020625
772.0 -17.70020625
774.0 -18.9209085
776.0 -20.1416135
778.0 -20.75196575
780.0 -20.75196575
782.0 -21.362318
784.0 -21.97267025
786.0 -21.362318
788.0 -21.362318
790.0 -20.751968
792.0 -20.751968
794.0 -20.14161575
796.0 -19.5312635
798.0 -19.5312635
800.0 -19.5312635
802.0 -19.5312635
804.0 -19.5312635
806.0 -20.1416135
808.0 -20.75196575
810.0 -20.75196575
812.0 -19.53126075
814.0 -19.53126075
816.0 -19.53126075
818.0 -19.53126075
820.0 -18.9209085
822.0 -18.3105585
824.0 -17.70020625
826.0 -17.70020625
828.0 -17.0898535
830.0 -17.0898535
832.0 -17.70020625
834.0 -18.31055625
836.0 -18.31055625
838.0 -18.92090625
840.0 -18.3105535
842.0 -18.92090575
844.0 -19.531258
846.0 -19.531258
848.0 -19.531258
850.0 -19.531258
852.0 -18.92090575
854.0 -17.7002035
856.0 -16.4794985
858.0 -15.86914625
860.0 -15.86914625
862.0 -14.64844125
864.0 -14.038089
866.0 -15.25879125
868.0 -15.25879125
870.0 -15.86914125
872.0 -15.2587885
874.0 -15.86914075
876.0 -15.86914075
878.0 -15.2587885
880.0 -14.64843575
882.0 -14.0380835
884.0 -13.42773125
886.0 -12.207029
888.0 -10.986324
890.0 -10.37597175
892.0 -10.9863245
894.0 -10.37597225
896.0 -9.1552695
898.0 -9.1552695
900.0 -9.1552695
902.0 -9.1552695
904.0 -9.1552695
906.0 -9.1552695
908.0 -9.76562225
910.0 -9.15527
912.0 -8.54491725
914.0 -7.324215
916.0 -6.71386275
918.0 -5.4931605
920.0 -5.4931605
922.0 -4.88280825
924.0 -4.272456
926.0 -4.272456
928.0 -4.272456
930.0 -4.272456
932.0 -4.88280825
934.0 -6.1035105
936.0 -6.1035105
938.0 -5.49315775
940.0 -5.49315775
942.0 -6.1035105
944.0 -6.1035105
946.0 -4.88280825
948.0 -3.66210325
950.0 -2.441401
952.0 -2.441401
954.0 -1.83104875
956.0 -1.83104875
958.0 -1.83104875
960.0 -2.4414015
962.0 -2.4414015
964.0 -3.66210375
966.0 -4.882806
968.0 -6.103511
970.0 -6.71386325
972.0 -6.71386325
974.0 -6.71386325
976.0 -7.934566
978.0 -7.934566
980.0 -8.54491825
982.0 -8.54491825
984.0 -7.9345655
986.0 -7.9345655
988.0 -7.9345655
990.0 -7.9345655
992.0 -7.3242155
994.0 -7.93456775
996.0 -8.54492
998.0 -9.76562225
1000.0 -10.375975
1002.0 -10.98632725
1004.0 -11.5966795
1006.0 -11.5966795
1008.0 -11.5966795
1010.0 -11.5966795
1012.0 -10.3759745
1014.0 -9.15527225
1016.0 -9.765625
1018.0 -10.37597775
1020.0 -10.37597775
1022.0 -9.765625
1024.0 -9.765625
1026.0 -10.98632725
1028.0 -12.81738225
1030.0 -14.0380845
1032.0 -15.2587895
1034.0 -15.86914175
1036.0 -15.86914175
1038.0 -16.479494
1040.0 -17.08984625
1042.0 -17.7001985
1044.0 -17.0898485
1046.0 -16.4794985
1048.0 -15.86914625
1050.0 -15.86914625
1052.0 -15.86914625
1054.0 -16.4794985
1056.0 -16.4794985
1058.0 -17.0898485
1060.0 -17.7001985
1062.0 -18.920901
1064.0 -20.141606
1066.0 -20.141606
1068.0 -20.141606
1070.0 -21.36230825
1072.0 -23.19336325
1074.0 -23.19336325
1076.0 -23.19336325
1078.0 -22.58301325
1080.0 -23.1933655
1082.0 -23.1933655
1084.0 -23.1933655
1086.0 -23.1933655
1088.0 -23.80371775
1090.0 -25.02442025
1092.0 -26.85547525
1094.0 -29.2968725
1096.0 -29.90722475
1098.0 -30.517577
1100.0 -31.12792925
1102.0 -32.34863425
1104.0 -32.9589865
1106.0 -32.9589865
1108.0 -32.9589865
1110.0 -32.3486365
1112.0 -32.3486365
1114.0 -32.3486365
1116.0 -32.95898875
1118.0 -32.95898875
1120.0 -32.95898875
1122.0 -34.17969125
1124.0 -34.79004125
1126.0 -36.62108625
1128.0 -37.2314385
1130.0 -38.452141
1132.0 -39.06249325
1134.0 -39.06249325
1136.0 -40.2831955
1138.0 -39.6728455
1140.0 -39.6728455
1142.0 -39.062493
1144.0 -39.062493
1146.0 -39.672843
1148.0 -40.28319525
1150.0 -39.67284525
1152.0 -39.67284525
1154.0 -40.28319525
1156.0 -42.11424025
1158.0 -43.94528525
1160.0 -43.94528525
1162.0 -45.16598775
1164.0 -45.77633775
1166.0 -46.99704
1168.0 -46.99704
1170.0 -46.99704
1172.0 -47.6073925
1174.0 -46.3866975
1176.0 -46.9970475
1178.0 -47.6073975
1180.0 -48.2177475
1182.0 -48.8280975
1184.0 -48.8280975
1186.0 -49.43845
1188.0 -50.659145
1190.0 -52.49019
1192.0 -53.10054
1194.0 -53.71089
1196.0 -54.32124
1198.0 -54.93159
1200.0 -54.93159
1202.0 -54.3212375
1204.0 -54.3212375
1206.0 -53.1005425
1208.0 -53.7108925
1210.0 -52.49019
1212.0 -52.49019
1214.0 -52.49019
1216.0 -51.87984
1218.0 -52.49019
1220.0 -53.710885
1222.0 -54.93158
1224.0 -55.54193
1226.0 -55.54193
1228.0 -55.54193
1230.0 -56.15228
1232.0 -56.15228
1234.0 -56.15228
1236.0 -53.71088275
1238.0 -52.49018775
1240.0 -52.49018775
1242.0 -51.87983525
1244.0 -51.26948525
1246.0 -51.26948525
1248.0 -51.26948525
1250.0 -50.65913275
1252.0 -51.26947525
1254.0 -51.87982775
1256.0 -51.87982775
1258.0 -51.26947775
1260.0 -51.26947775
1262.0 -50.65912775
1264.0 -50.65912775
1266.0 -50.04877525
1268.0 -48.21773025
1270.0 -46.38668525
1272.0 -45.165983
1274.0 -44.555633
1276.0 -43.945283
1278.0 -43.334933
1280.0 -42.72458075
1282.0 -42.72458075
1284.0 -43.33493325
1286.0 -43.94528575
1288.0 -43.33493575
1290.0 -43.33493575
1292.0 -43.33493575
1294.0 -42.7245835
1296.0 -42.7245835
1298.0 -42.7245835
1300.0 -40.8935385
1302.0 -39.0624935
1304.0 -38.4521435
1306.0 -37.8417935
1308.0 -37.23144125
1310.0 -36.62109125
1312.0 -36.62109125
1314.0 -36.62109125
1316.0 -37.2314435
1318.0 -36.6210935
1320.0 -36.6210935
1322.0 -36.0107435
1324.0 -36.0107435
1326.0 -34.79004125
1328.0 -34.179689
1330.0 -34.179689
1332.0 -31.73829175
1334.0 -30.51758925
1336.0 -29.296887
1338.0 -29.296887
1340.0 -28.686537
1342.0 -28.686537
1344.0 -28.07618475
1346.0 -28.07618475
1348.0 -29.29688725
1350.0 -29.90723725
1352.0 -29.90723725
1354.0 -29.90723725
1356.0 -29.90723725
1358.0 -29.296885
1360.0 -29.90723725
1362.0 -29.29688725
1364.0 -28.07618475
1366.0 -26.85548225
1368.0 -26.24513
1370.0 -26.24513
1372.0 -26.24513
1374.0 -26.24513
1376.0 -25.63477775
1378.0 -25.02442775
1380.0 -25.63477775
1382.0 -26.24512775
1384.0 -26.24512775
1386.0 -26.24512775
1388.0 -26.85548
1390.0 -26.24512775
1392.0 -26.24512775
1394.0 -25.63477775
1396.0 -25.0244255
1398.0 -25.0244255
1400.0 -24.41407325
1402.0 -24.41407325
1404.0 -24.41407325
1406.0 -25.0244255
1408.0 -24.41407275
1410.0 -24.41407275
1412.0 -25.634775
1414.0 -26.245125
1416.0 -26.85547725
1418.0 -26.85547725
1420.0 -26.85547725
1422.0 -26.85547725
1424.0 -26.85547725
1426.0 -26.24512725
1428.0 -25.02442475
1430.0 -24.41407475
1432.0 -24.41407475
1434.0 -24.41407475
1436.0 -23.8037225
1438.0 -23.8037225
1440.0 -23.19337025
1442.0 -23.80372025
1444.0 -24.41407025
1446.0 -24.41407025
1448.0 -24.41407025
1450.0 -24.41407025
1452.0 -24.41407025
1454.0 -25.0244225
1456.0 -25.63477475
1458.0 -25.63477475
1460.0 -25.02442475
1462.0 -24.41407475
1464.0 -23.8037225
1466.0 -24.4140725
1468.0 -24.4140725
1470.0 -24.4140725
1472.0 -24.4140725
1474.0 -25.0244225
1476.0 -27.46581975
1478.0 -27.46581975
1480.0 -28.076172
1482.0 -28.076172
1484.0 -28.076172
1486.0 -28.076172
1488.0 -28.68652475
1490.0 -28.68652475
1492.0 -28.07617475
1494.0 -27.46582475
1496.0 -27.46582475
1498.0 -27.46582475
1500.0 -27.46582475
1502.0 -26.8554725
1504.0 -28.07617475
1506.0 -28.68652475
1508.0 -30.51756975
1510.0 -30.51756975
1512.0 -31.127922
1514.0 -31.738272
1516.0 -32.34862425
1518.0 -32.9589765
1520.0 -33.56932875
1522.0 -33.56932875
1524.0 -32.95897875
1526.0 -32.95897875
1528.0 -33.569331
1530.0 -33.569331
1532.0 -33.569331
1534.0 -34.179681
1536.0 -34.179681
1538.0 -34.790031
1540.0 -36.621076
1542.0 -37.231426
1544.0 -37.84177825
1546.0 -37.84177825
1548.0 -37.84177825
1550.0 -39.0624805
1552.0 -38.45212825
1554.0 -39.06248075
1556.0 -37.23143575
1558.0 -37.84178575
1560.0 -37.84178575
1562.0 -38.45213575
1564.0 -38.45213575
1566.0 -39.06248575
1568.0 -39.672838
1570.0 -40.2831905
1572.0 -42.1142355
1574.0 -42.7245855
1576.0 -42.7245855
1578.0 -43.3349355
1580.0 -43.9452855
1582.0 -44.55563775
1584.0 -43.94528775
1586.0 -43.94528775
1588.0 -42.11424275
1590.0 -42.11424275
1592.0 -42.11424275
1594.0 -42.11424275
1596.0 -42.11424275
1598.0 -42.11424275
1600.0 -42.11424275
1602.0 -42.72459525
1604.0 -44.55564025
1606.0 -45.16599025
1608.0 -45.16599025
1610.0 -46.38669275
1612.0 -46.38669275
1614.0 -45.77634275
1616.0 -45.77634275
1618.0 -46.38669525
1620.0 -44.55565025
1622.0 -44.55565025
1624.0 -44.55565025
1626.0 -44.55565025
1628.0 -44.55565025
1630.0 -43.94530025
1632.0 -44.5556525
1634.0 -43.9453
1636.0 -45.776345
1638.0 -46.3866975
1640.0 -46.3866975
1642.0 -46.3866975
1644.0 -46.3866975
1646.0 -46.3866975
1648.0 -46.3866975
1650.0 -45.776345
1652.0 -43.9453
1654.0 -43.9453
1656.0 -43.33494775
1658.0 -43.33494775
1660.0 -42.72459775
1662.0 -42.1142455
1664.0 -41.50389325
1666.0 -42.11424575
1668.0 -43.94529075
1670.0 -44.55564075
1672.0 -44.55564075
1674.0 -45.16599325
1676.0 -45.16599325
1678.0 -45.16599325
1680.0 -45.16599325
1682.0 -44.55564075
1684.0 -42.72459575
1686.0 -42.11424575
1688.0 -42.11424575
1690.0 -41.50389325
1692.0 -41.50389325
1694.0 -41.50389325
1696.0 -40.893541
1698.0 -40.893541
1700.0 -43.334936
1702.0 -42.724586
1704.0 -42.724586
1706.0 -42.114236
1708.0 -42.114236
1710.0 -41.50388375
1712.0 -41.50388375
1714.0 -40.89353375
1716.0 -39.06248875
1718.0 -37.84178625
1720.0 -37.84178625
1722.0 -37.84178625
1724.0 -37.84178625
1726.0 -37.23143625
1728.0 -36.621084
1730.0 -37.2314365
1732.0 -38.452139
1734.0 -37.841789
1736.0 -38.45214125
1738.0 -38.45214125
1740.0 -39.06249125
1742.0 -39.6728435
1744.0 -39.06249075
1746.0 -37.84178825
1748.0 -36.01074325
1750.0 -35.40039325
1752.0 -34.790041
1754.0 -33.5693385
1756.0 -33.5693385
1758.0 -32.95898625
1760.0 -32.95898625
1762.0 -33.56933875
1764.0 -35.40038375
1766.0 -34.7900315
1768.0 -34.7900315
1770.0 -34.1796815
1772.0 -34.1796815
1774.0 -34.1796815
1776.0 -34.1796815
1778.0 -32.958979
1780.0 -30.517584
1782.0 -30.517584
1784.0 -29.90723175
1786.0 -30.51758175
1788.0 -30.51758175
1790.0 -31.127934
1792.0 -30.51758175
1794.0 -31.73828425
1796.0 -32.95898675
1798.0 -33.56933675
1800.0 -33.56933675
1802.0 -33.56933675
1804.0 -33.56933675
1806.0 -33.56933675
1808.0 -33.56933675
1810.0 -32.95898425
1812.0 -31.73828175
1814.0 -31.73828175
1816.0 -31.73828175
1818.0 -31.12793175
1820.0 -30.51758175
1822.0 -30.51758175
1824.0 -31.1279345
1826.0 -32.348637
1828.0 -33.5693395
1830.0 -32.95898725
1832.0 -33.5693395
1834.0 -34.1796895
1836.0 -34.1796895
1838.0 -34.79004175
1840.0 -34.1796895
1842.0 -33.569337
1844.0 -32.348642
1846.0 -32.95899425
1848.0 -32.95899425
1850.0 -32.95899425
1852.0 -32.348642
1854.0 -32.958992
1856.0 -32.958992
1858.0 -34.1796945
1860.0 -35.400397
1862.0 -36.010747
1864.0 -36.62109925
1866.0 -36.01074925
1868.0 -36.01074925
1870.0 -35.400397
1872.0 -35.400397
1874.0 -34.1796945
1876.0 -32.958992
1878.0 -32.348642
1880.0 -32.348642
1882.0 -31.738292
1884.0 -31.738292
1886.0 -31.738292
1888.0 -31.738292
1890.0 -31.738292
1892.0 -33.569337
1894.0 -34.179687
1896.0 -34.179687
1898.0 -34.179687
1900.0 -34.790037
1902.0 -34.790037
1904.0 -34.790037
1906.0 -33.5693345
1908.0 -32.348632
1910.0 -32.95898425
1912.0 -32.348632
1914.0 -32.348632
1916.0 -32.958982
1918.0 -32.958982
1920.0 -33.56933425
1922.0 -34.17968675
1924.0 -34.17968675
1926.0 -34.17968675
1928.0 -34.17968675
1930.0 -34.79003675
1932.0 -36.010739
1934.0 -35.400389
1936.0 -36.01074125
1938.0 -34.79003875
1940.0 -33.56933625
1942.0 -33.56933625
1944.0 -33.56933625
1946.0 -34.17968625
1948.0 -34.17968625
1950.0 -34.7900385
1952.0 -34.7900385
1954.0 -36.6210835
1956.0 -37.2314335
1958.0 -37.2314335
1960.0 -37.2314335
1962.0 -37.2314335
1964.0 -37.2314335
1966.0 -37.2314335
1968.0 -37.84178575
1970.0 -37.84178575
1972.0 -35.4003885
1974.0 -34.7900385
1976.0 -34.7900385
1978.0 -35.4003885
1980.0 -34.17968625
1982.0 -34.17968625
1984.0 -34.7900385
1986.0 -36.6210835
1988.0 -37.2314335
1990.0 -37.2314335
1992.0 -37.84178575
1994.0 -37.84178575
1996.0 -37.23143575
1998.0 -37.23143575
2000.0 -37.23143575
2002.0 -36.62108325
2004.0 -36.62108325
2006.0 -37.23143325
2008.0 -37.23143325
2010.0 -36.62108325
2012.0 -36.01073325
2014.0 -36.01073325
2016.0 -36.01073325
2018.0 -37.84177825
2020.0 -39.67282325
2022.0 -39.67282325
2024.0 -39.67282325
2026.0 -40.28317575
2028.0 -40.89352575
2030.0 -40.89352575
2032.0 -41.503878
2034.0 -39.672833
2036.0 -39.062483
2038.0 -39.672833
2040.0 -39.672833
2042.0 -40.283183
2044.0 -40.283183
2046.0 -40.283183
2048.0 -39.67283075
2050.0 -41.50387575
2052.0 -43.3349305
2054.0 -43.9452805
2056.0 -43.9452805
2058.0 -43.3349305
2060.0 -44.55563275
2062.0 -45.77633525
2064.0 -45.77633525
2066.0 -44.55564025
2068.0 -44.55564025
2070.0 -45.16599025
2072.0 -45.16599025
2074.0 -45.16599025
2076.0 -45.16599025
2078.0 -45.16599025
2080.0 -45.16599025
2082.0 -46.38668525
2084.0 -47.60738025
2086.0 -47.60738025
2088.0 -47.60738025
2090.0 -48.21773025
2092.0 -48.21773025
2094.0 -48.21773025
2096.0 -48.21773025
2098.0 -46.99703525
2100.0 -45.77634025
2102.0 -45.77634025
2104.0 -45.165988
2106.0 -44.5556355
2108.0 -45.165988
2110.0 -46.3866905
2112.0 -46.9970405
2114.0 -49.4384355
2116.0 -50.659138
2118.0 -50.659138
2120.0 -51.269488
2122.0 -51.269488
2124.0 -51.269488
2126.0 -51.879838
2128.0 -52.49019025
2130.0 -50.65914525
2132.0 -50.04879275
2134.0 -50.04879275
2136.0 -50.04879275
2138.0 -50.65914275
2140.0 -50.65914275
2142.0 -50.04879025
2144.0 -50.04879025
2146.0 -51.87983525
2148.0 -53.10053025
2150.0 -53.10053025
2152.0 -53.10053025
2154.0 -53.10053025
2156.0 -53.10053025
2158.0 -53.71088025
2160.0 -54.32123025
2162.0 -53.10053525
2164.0 -51.87984025
2166.0 -52.49019275
2168.0 -52.49019275
2170.0 -52.49019275
2172.0 -52.49019275
2174.0 -53.10054275
2176.0 -53.71089275
2178.0 -55.54193775
2180.0 -56.15229025
2182.0 -56.15229025
2184.0 -57.3729925
2186.0 -57.3729925
2188.0 -56.76264
2190.0 -55.5419375
2192.0 -54.9315875
2194.0 -54.3212375
2196.0 -53.710885
2198.0 -54.3212375
2200.0 -54.3212375
2202.0 -54.3212375
2204.0 -54.3212375
2206.0 -54.3212375
2208.0 -54.9315875
2210.0 -56.1522825
2212.0 -56.1522825
2214.0 -56.1522825
2216.0 -56.7626325
2218.0 -56.7626325
2220.0 -56.1522825
2222.0 -55.5419325
2224.0 -55.5419325
2226.0 -54.32124
2228.0 -53.100545
2230.0 -53.100545
2232.0 -53.100545
2234.0 -53.100545
2236.0 -53.710895
2238.0 -53.710895
2240.0 -53.710895
2242.0 -55.54194
2244.0 -56.762635
2246.0 -56.762635
2248.0 -57.372985
2250.0 -57.9833375
2252.0 -57.9833375
2254.0 -57.9833375
2256.0 -57.9833375
2258.0 -56.1522925
2260.0 -54.93159
2262.0 -54.93159
2264.0 -54.32124
2266.0 -54.32124
2268.0 -53.71089
2270.0 -53.71089
2272.0 -53.71089
2274.0 -53.71089
2276.0 -53.71089
2278.0 -52.4901875
2280.0 -51.8798375
2282.0 -51.2694875
2284.0 -51.2694875
2286.0 -50.6591375
2288.0 -50.0487875
2290.0 -49.438445
2292.0 -48.828095
2294.0 -48.217745
2296.0 -47.607395
2298.0 -46.997045
2300.0 -46.997045
2302.0 -46.997045
2304.0 -46.997045
2306.0 -47.6073875
2308.0 -47.6073875
2310.0 -47.6073875
2312.0 -47.6073875
2314.0 -47.6073875
2316.0 -47.6073875
2318.0 -47.6073875
2320.0 -46.9970375
2322.0 -45.1659925
2324.0 -43.9452975
2326.0 -42.724595
2328.0 -41.50389275
2330.0 -40.89354025
2332.0 -40.89354025
2334.0 -40.28319025
2336.0 -40.28319025
2338.0 -41.50388525
2340.0 -42.11423525
2342.0 -41.50388525
2344.0 -41.50388525
2346.0 -41.50388525
2348.0 -41.50388525
2350.0 -41.50388525
2352.0 -41.50388525
2354.0 -40.28319025
2356.0 -39.67284025
2358.0 -40.28319025
2360.0 -40.28319025
2362.0 -40.28319025
2364.0 -40.28319025
2366.0 -40.28319025
2368.0 -40.28319025
2370.0 -40.89353275
2372.0 -41.50388275
2374.0 -42.11423275
2376.0 -42.11423275
2378.0 -42.72458275
2380.0 -42.72458275
2382.0 -42.72458275
2384.0 -42.1142305
2386.0 -40.8935355
2388.0 -40.8935355
2390.0 -40.2831855
2392.0 -39.67283325
2394.0 -39.06248325
2396.0 -39.06248325
2398.0 -39.06248325
2400.0 -39.06248325
2402.0 -40.28317825
2404.0 -39.67282825
2406.0 -39.67282825
2408.0 -40.2831805
2410.0 -40.2831805
2412.0 -39.67282825
2414.0 -39.67282825
2416.0 -38.452126
2418.0 -36.621081
2420.0 -35.40037875
2422.0 -36.01072875
2424.0 -35.4003765
2426.0 -34.7900265
2428.0 -34.7900265
2430.0 -34.7900265
2432.0 -34.7900265
2434.0 -36.0107215
2436.0 -36.6210715
2438.0 -36.0107215
2440.0 -35.40036925
2442.0 -35.40036925
2444.0 -34.790017
2446.0 -34.17966475
2448.0 -34.17966475
2450.0 -32.95896975
2452.0 -32.34861975
2454.0 -31.73826975
2456.0 -31.73826975
2458.0 -31.73826975
2460.0 -31.73826975
2462.0 -31.1279175
2464.0 -32.34861975
2466.0 -33.56931475
2468.0 -32.95896475
2470.0 -32.95896475
2472.0 -32.95896475
2474.0 -33.56931475
2476.0 -32.3486125
2478.0 -32.3486125
2480.0 -31.73826025
2482.0 -29.90721525
2484.0 -29.90721525
2486.0 -29.90721525
2488.0 -29.296863
2490.0 -28.07616075
2492.0 -28.686513
2494.0 -28.686513
2496.0 -28.686513
2498.0 -30.517558
2500.0 -31.12791025
2502.0 -30.51756025
2504.0 -31.1279125
2506.0 -31.1279125
2508.0 -30.51756025
2510.0 -29.907208
2512.0 -29.907208
2514.0 -28.076163
2516.0 -26.85546075
2518.0 -26.85546075
2520.0 -26.85546075
2522.0 -25.63475575
2524.0 -26.245108
2526.0 -26.85546025
2528.0 -26.245108
2530.0 -26.8554605
2532.0 -26.8554605
2534.0 -26.24510825
2536.0 -26.24510825
2538.0 -25.63475825
2540.0 -25.024406
2542.0 -25.024406
2544.0 -23.80370375
2546.0 -21.3623065
2548.0 -20.75195425
2550.0 -20.141602
2552.0 -19.53124925
2554.0 -18.92089925
2556.0 -18.3105465
2558.0 -17.08984425
2560.0 -17.08984425
2562.0 -18.31054675
2564.0 -18.31054675
2566.0 -18.31054675
2568.0 -18.31054675
2570.0 -18.920899
2572.0 -18.31054675
2574.0 -18.31054675
2576.0 -18.31054675
2578.0 -15.8691495
2580.0 -15.25879725
2582.0 -14.648445
2584.0 -13.42774
2586.0 -12.81738775
2588.0 -12.81738775
2590.0 -12.207035
2592.0 -11.59668275
2594.0 -11.59668275
2596.0 -11.59668275
2598.0 -10.37597775
2600.0 -10.98633
2602.0 -11.59668275
2604.0 -10.9863305
2606.0 -10.37597825
2608.0 -9.7656255
2610.0 -7.93457075
2612.0 -7.3242185
2614.0 -7.3242185
2616.0 -6.71386625
2618.0 -6.103514
2620.0 -4.88281125
2622.0 -4.88281125
2624.0 -4.88281125
2626.0 -6.713866
2628.0 -6.713866
2630.0 -7.32421825
2632.0 -7.934571
2634.0 -7.934571
2636.0 -8.54492375
2638.0 -8.54492375
2640.0 -8.54492375
2642.0 -6.713869
2644.0 -6.713869
2646.0 -6.10351675
2648.0 -6.10351675
2650.0 -6.10351675
2652.0 -6.10351675
2654.0 -5.4931645
2656.0 -5.4931645
2658.0 -6.71386675
2660.0 -6.71386675
2662.0 -7.324219
2664.0 -7.93457175
2666.0 -7.93457175
2668.0 -7.93457175
2670.0 -8.5449245
2672.0 -7.93457175
2674.0 -7.3242195
2676.0 -7.3242195
2678.0 -7.3242195
2680.0 -6.1035145
2682.0 -6.1035145
2684.0 -6.71386675
2686.0 -6.71386675
2688.0 -7.3242195
2690.0 -8.54492175
2692.0 -8.54492175
2694.0 -8.54492175
2696.0 -8.54492175
2698.0 -8.54492175
2700.0 -9.7656245
2702.0 -9.7656245
2704.0 -9.7656245
2706.0 -8.544922
2708.0 -8.544922
2710.0 -7.93456975
2712.0 -7.93456975
2714.0 -7.3242175
2716.0 -7.3242175
2718.0 -7.3242175
2720.0 -7.93456975
2722.0 -9.155272
2724.0 -9.155272
2726.0 -9.76562425
2728.0 -9.76562425
2730.0 -9.155272
2732.0 -9.155272
2734.0 -9.155272
2736.0 -8.54491925
2738.0 -7.93456925
2740.0 -8.5449215
2742.0 -8.5449215
2744.0 -8.5449215
2746.0 -8.5449215
2748.0 -8.5449215
2750.0 -8.5449215
2752.0 -9.7656265
2754.0 -11.59668125
2756.0 -12.2070335
2758.0 -12.81738625
2760.0 -13.427739
2762.0 -13.427739
2764.0 -12.207034
2766.0 -12.81738625
2768.0 -13.4277385
2770.0 -12.8173885
2772.0 -12.8173885
2774.0 -13.42774075
2776.0 -14.038093
2778.0 -14.038093
2780.0 -14.64844525
2782.0 -14.64844525
2784.0 -15.2587975
2786.0 -16.4795
2788.0 -17.08985225
2790.0 -17.08985225
2792.0 -17.08985225
2794.0 -17.7002045
2796.0 -17.7002045
2798.0 -18.31055675
2800.0 -17.08985175
2802.0 -16.47950175
2804.0 -15.8691495
2806.0 -15.8691495
2808.0 -15.8691495
2810.0 -15.8691495
2812.0 -15.8691495
2814.0 -16.47950175
2816.0 -18.31055675
2818.0 -18.92090675
2820.0 -18.3105545
2822.0 -18.3105545
2824.0 -18.3105545
2826.0 -18.92090675
2828.0 -19.531259
2830.0 -20.14161125
2832.0 -20.14161125
2834.0 -18.92090875
2836.0 -18.3105565
2838.0 -18.92090875
2840.0 -18.92090875
2842.0 -20.141611
2844.0 -20.75196375
2846.0 -20.1416115
2848.0 -20.1416115
2850.0 -21.362314
2852.0 -21.362314
2854.0 -21.362314
2856.0 -20.75196175
2858.0 -20.75196175
2860.0 -20.75196175
2862.0 -20.75196175
2864.0 -20.1416095
2866.0 -18.31055475
2868.0 -18.31055475
2870.0 -18.920907
2872.0 -18.920907
2874.0 -18.920907
2876.0 -18.920907
2878.0 -18.920907
2880.0 -20.141612
2882.0 -20.751962
2884.0 -21.36231425
2886.0 -20.751962
2888.0 -21.36231425
2890.0 -21.36231425
2892.0 -21.9726665
2894.0 -20.7519615
2896.0 -19.53125925
2898.0 -18.92090925
2900.0 -19.5312615
2902.0 -18.92090925
2904.0 -19.5312615
2906.0 -19.5312615
2908.0 -18.92090925
2910.0 -18.310557
2912.0 -18.310557
2914.0 -18.920907
2916.0 -19.53125925
2918.0 -18.920907
2920.0 -18.920907
2922.0 -18.310557
2924.0 -18.92090925
2926.0 -17.7002065
2928.0 -17.08985425
2930.0 -15.86915175
2932.0 -15.86915175
2934.0 -15.86915175
2936.0 -15.86915175
2938.0 -15.86915175
2940.0 -15.2587995
2942.0 -15.2587995
2944.0 -15.86915175
2946.0 -17.089854
2948.0 -17.089854
2950.0 -17.089854
2952.0 -16.47950125
2954.0 -16.47950125
2956.0 -16.47950125
2958.0 -16.47950125
2960.0 -15.869149
2962.0 -14.64844675
2964.0 -14.0380945
2966.0 -14.0380945
2968.0 -13.42774225
2970.0 -13.42774225
2972.0 -12.81739
2974.0 -13.42774275
2976.0 -14.038095
2978.0 -14.038095
2980.0 -13.42774275
2982.0 -13.42774275
2984.0 -13.42774275
2986.0 -12.20703775
2988.0 -12.20703775
2990.0 -11.596685
2992.0 -10.98633275
2994.0 -9.7656305
2996.0 -9.15527825
2998.0 -9.15527825
3000.0 -8.5449255
3002.0 -6.7138705
3004.0 -5.4931655
3006.0 -6.1035155
3008.0 -6.71386775
3010.0 -6.71386775
3012.0 -6.71386775
3014.0 -6.1035155
3016.0 -6.1035155
3018.0 -6.1035155
3020.0 -5.49316275
3022.0 -5.49316275
3024.0 -4.27245775
3026.0 -3.0517555
3028.0 -2.44140325
3030.0 -1.831051
3032.0 -1.220701
3034.0 3.99999992995e-06
3036.0 3.99999992995e-06
3038.0 0.61035625
3040.0 0.61035625
3042.0 3.9999999299e-06
3044.0 3.9999999299e-06
3046.0 3.9999999299e-06
3048.0 1.22070675
3050.0 1.22070675
3052.0 1.8310595
3054.0 1.8310595
3056.0 3.0517645
3058.0 3.66211675
3060.0 4.2724695
3062.0 4.88282225
3064.0 6.10352725
3066.0 6.10352725
3068.0 6.71388
3070.0 6.10352725
3072.0 6.10352725
3074.0 6.71388
3076.0 6.71388
3078.0 6.71388
3080.0 6.10352725
3082.0 5.49317725
3084.0 5.49317725
3086.0 5.49317725
3088.0 6.1035295
3090.0 6.71388175
3092.0 7.3242345
3094.0 7.3242345
3096.0 8.54493725
3098.0 8.54493725
3100.0 8.54493725
3102.0 9.15529
3104.0 7.934585
3106.0 7.32423275
3108.0 7.32423275
3110.0 7.32423275
3112.0 6.71388275
3114.0 6.10353
3116.0 7.93458525
3118.0 8.544938
3120.0 9.15529075
3122.0 10.37599575
3124.0 11.5966985
3126.0 12.81740125
3128.0 12.20705125
3130.0 12.20705125
3132.0 12.20705125
3134.0 12.817404
3136.0 12.20705125
3138.0 11.596699
3140.0 10.98634625
3142.0 10.98634625
3144.0 10.98634625
3146.0 10.3759935
3148.0 10.9863435
3150.0 11.59669625
3152.0 12.817399
3154.0 12.20704625
3156.0 12.817399
3158.0 13.42775175
3160.0 14.0381045
3162.0 13.42775175
3164.0 13.42775175
3166.0 12.817399
3168.0 12.817399
3170.0 12.20704675
3172.0 12.81739675
3174.0 12.81739675
3176.0 12.81739675
3178.0 13.4277495
3180.0 12.81739675
3182.0 13.42774675
3184.0 14.64845175
3186.0 15.86915675
3188.0 16.4795095
3190.0 16.4795095
3192.0 17.0898595
3194.0 17.0898595
3196.0 16.479507
3198.0 16.479507
3200.0 15.258802
3202.0 14.64844925
3204.0 14.03809925
3206.0 13.42774925
3208.0 13.42774925
3210.0 13.42774925
3212.0 13.42774925
3214.0 13.42774925
3216.0 14.648452
3218.0 15.869157
3220.0 16.47950975
3222.0 15.869157
3224.0 15.869157
3226.0 15.869157
3228.0 14.64845425
3230.0 14.0381015
3232.0 12.81739875
3234.0 12.81739875
3236.0 12.81739875
3238.0 12.207046
3240.0 12.817396
3242.0 13.42774875
3244.0 13.42774875
3246.0 14.0381015
3248.0 15.25880425
3250.0 15.8691565
3252.0 15.2588065
3254.0 15.86915925
3256.0 15.86915925
3258.0 15.86915925
3260.0 17.7002145
3262.0 16.47951175
3264.0 15.869159
3266.0 15.25880625
3268.0 15.86915625
3270.0 15.86915625
3272.0 15.86915625
3274.0 16.479509
3276.0 15.869159
3278.0 15.869159
3280.0 17.700214
3282.0 18.31056675
3284.0 18.31056675
3286.0 17.700214
3288.0 18.310564
3290.0 19.53126675
3292.0 20.14161675
3294.0 20.14161675
3296.0 18.31056175
3298.0 17.700209
3300.0 17.08985625
3302.0 17.700209
3304.0 18.310559
3306.0 18.92091175
3308.0 20.1416145
3310.0 20.75196725
3312.0 21.97267
3314.0 22.58302275
3316.0 22.58302275
3318.0 23.8037255
3320.0 23.1933755
3322.0 23.1933755
3324.0 23.1933755
3326.0 23.1933755
3328.0 21.3623205
3330.0 21.3623205
3332.0 20.75196775
3334.0 20.75196775
3336.0 20.14161775
3338.0 20.14161775
3340.0 18.3105625
3342.0 19.53126525
3344.0 20.751968
3346.0 20.751968
3348.0 20.141618
3350.0 20.141618
3352.0 20.141618
3354.0 20.141618
3356.0 20.751968
3358.0 20.14161525
3360.0 18.31056025
3362.0 17.7002075
3364.0 17.7002075
3366.0 17.7002075
3368.0 17.7002075
3370.0 16.47950475
3372.0 16.47950475
3374.0 17.08985475
3376.0 18.31055975
3378.0 18.9209125
3380.0 20.14161525
3382.0 20.14161525
3384.0 20.14161525
3386.0 20.14161525
3388.0 19.53126525
3390.0 18.9209125
3392.0 17.70020975
3394.0 17.089857
3396.0 17.700207
3398.0 16.47950425
3400.0 16.47950425
3402.0 16.47950425
3404.0 16.47950425
3406.0 15.8691515
3408.0 17.0898565
3410.0 17.70020925
3412.0 18.310562
3414.0 18.310562
3416.0 18.310562
3418.0 18.920912
3420.0 20.14161475
3422.0 18.920912
3424.0 17.70020925
3426.0 17.70020925
3428.0 18.31055925
3430.0 18.920912
3432.0 18.920912
3434.0 18.920912
3436.0 18.310562
3438.0 20.14161725
3440.0 21.97267225
3442.0 22.583025
3444.0 22.583025
3446.0 23.19337775
3448.0 23.80373025
3450.0 23.80373025
3452.0 23.80373025
3454.0 21.97267525
3456.0 20.75197025
3458.0 20.1416175
3460.0 19.5312675
3462.0 19.5312675
3464.0 18.9209175
3466.0 18.31056475
3468.0 18.31056475
3470.0 18.31056475
3472.0 19.5312675
3474.0 19.5312675
3476.0 18.31056475
3478.0 18.9209175
3480.0 19.5312675
3482.0 18.92091475
3484.0 19.53126475
3486.0 18.9209125
3488.0 18.31055975
3490.0 18.31055975
3492.0 18.92090975
3494.0 18.92090975
3496.0 19.53125975
3498.0 18.310557
3500.0 18.310557
3502.0 19.53125975
3504.0 20.7519625
3506.0 21.36231525
3508.0 20.1416125
3510.0 19.53125975
3512.0 19.53125975
3514.0 18.920907
3516.0 18.920907
3518.0 16.4794995
3520.0 15.25879675
3522.0 14.648444
3524.0 14.03809125
3526.0 13.4277385
3528.0 12.207036
3530.0 12.81738875
3532.0 12.20703875
3534.0 13.42774375
3536.0 15.86915125
3538.0 15.86915125
3540.0 15.2587985
3542.0 14.64844575
3544.0 15.25879575
3546.0 15.25879575
3548.0 15.25879575
3550.0 14.6484435
3552.0 14.0380935
3554.0 14.0380935
3556.0 14.64844625
3558.0 14.64844625
3560.0 14.03809625
3562.0 14.03809625
3564.0 13.42774625
3566.0 14.64845125
3568.0 15.258804
3570.0 15.258804
3572.0 14.03810125
3574.0 13.4277485
3576.0 13.4277485
3578.0 13.4277485
3580.0 12.20704575
3582.0 10.37599075
3584.0 9.155288
3586.0 7.934583
3588.0 7.934583
3590.0 7.934583
3592.0 7.324233
3594.0 7.324233
3596.0 7.934583
3598.0 9.155288
3600.0 9.76564075
3602.0 9.76564075
3604.0 9.76564075
3606.0 9.76564075
3608.0 10.37599075
3610.0 9.765638
3612.0 9.765638
3614.0 9.15528525
3616.0 7.32423
3618.0 7.32423
3620.0 7.93458275
3622.0 7.93458275
3624.0 7.93458275
3626.0 7.93458275
3628.0 8.54493275
3630.0 9.155285
3632.0 9.155285
3634.0 9.155285
3636.0 9.765635
3638.0 9.765635
3640.0 9.765635
3642.0 9.765635
3644.0 9.765635
3646.0 7.93458
3648.0 7.32422725
3650.0 6.7138745
3652.0 7.32422725
3654.0 7.32422725
3656.0 6.71387725
3658.0 6.71387725
3660.0 6.71387725
3662.0 7.3242295
3664.0 7.93458225
3666.0 8.5449345
3668.0 8.5449345
3670.0 8.5449345
3672.0 8.5449345
3674.0 8.5449345
3676.0 7.32423175
3678.0 6.10352675
3680.0 5.493174
3682.0 4.88282175
3684.0 5.4931745
3686.0 5.4931745
3688.0 4.8828245
3690.0 4.8828245
3692.0 4.27247175
3694.0 4.8828245
3696.0 5.49317725
3698.0 4.882825
3700.0 4.882825
3702.0 5.49317775
3704.0 5.49317775
3706.0 5.49317775
3708.0 4.88282775
3710.0 3.6621255
3712.0 3.05177275
3714.0 2.4414205
3716.0 1.8310705
3718.0 1.22071775
3720.0 0.610365
3722.0 1.27499999301e-05
3724.0 -0.61034
3726.0 0.61036225
3728.0 1.220715
3730.0 1.220715
3732.0 1.220715
3734.0 1.83106775
3736.0 1.220715
3738.0 1.220715
3740.0 1.220715
3742.0 0.61036275
3744.0 0.61036275
3746.0 1.04999999301e-05
3748.0 0.61036325
3750.0 0.61036325
3752.0 1.22071325
3754.0 1.22071325
3756.0 1.831066
3758.0 2.44141825
3760.0 2.44141825
3762.0 3.66212325
3764.0 3.66212325
3766.0 4.272476
3768.0 4.272476
3770.0 4.272476
3772.0 4.272476
3774.0 2.441421
3776.0 1.220716
3778.0 1.220716
3780.0 0.61036325
3782.0 -0.61034175
3784.0 -1.8310445
3786.0 -1.8310445
3788.0 -2.44139725
3790.0 -1.220695
3792.0 -1.220695
3794.0 -0.61034275
3796.0 7.24999993045e-06
3798.0 7.24999993045e-06
3800.0 0.61036
3802.0 1.22071225
3804.0 1.831065
3806.0 0.61036275
3808.0 -0.61034225
3810.0 -0.61034225
3812.0 -0.61034225
3814.0 -1.220695
3816.0 -0.61034225
3818.0 -1.2206945
3820.0 -1.2206945
3822.0 -0.61034225
3824.0 7.74999993007e-06
3826.0 0.61036
3828.0 7.24999993009e-06
3830.0 -0.610345
3832.0 -1.83104775
3834.0 -1.83104775
3836.0 -2.4414005
3838.0 -3.66210275
3840.0 -3.66210275
3842.0 -4.88280775
3844.0 -6.10351275
3846.0 -6.7138655
3848.0 -7.32421825
3850.0 -7.9345705
3852.0 -7.32421775
3854.0 -6.71386775
3856.0 -6.1035155
3858.0 -6.1035155
3860.0 -6.1035155
3862.0 -5.49316325
3864.0 -5.49316325
3866.0 -6.1035155
3868.0 -6.1035155
3870.0 -7.32421775
3872.0 -7.93457
3874.0 -8.54492225
3876.0 -9.765625
3878.0 -9.765625
3880.0 -9.765625
3882.0 -9.765625
3884.0 -10.37597775
3886.0 -8.54492275
3888.0 -7.32421775
3890.0 -7.93457
3892.0 -8.54492275
3894.0 -8.54492275
3896.0 -7.93457275
3898.0 -7.93457275
3900.0 -8.544925
3902.0 -9.15527725
3904.0 -10.37598
3906.0 -10.98633225
3908.0 -11.5966845
3910.0 -10.98633225
3912.0 -11.5966845
3914.0 -12.20703675
3916.0 -12.20703675
3918.0 -10.9863345
3920.0 -11.59668675
3922.0 -11.59668675
3924.0 -10.9863345
3926.0 -10.9863345
3928.0 -10.9863345
3930.0 -10.37598225
3932.0 -10.986335
3934.0 -11.596685
3936.0 -11.596685
3938.0 -11.596685
3940.0 -11.596685
3942.0 -11.596685
3944.0 -11.596685
3946.0 -10.98633275
3948.0 -10.98633275
3950.0 -9.15527775
3952.0 -8.5449255
3954.0 -8.5449255
3956.0 -8.5449255
3958.0 -8.5449255
3960.0 -9.15527825
3962.0 -9.15527825
3964.0 -9.15527825
3966.0 -10.98633325
3968.0 -11.596686
3970.0 -11.596686
3972.0 -12.20703825
3974.0 -12.20703825
3976.0 -12.81738825
3978.0 -12.207036
3980.0 -11.59668375
3982.0 -10.37597875
3984.0 -10.37597875
3986.0 -10.37597875
3988.0 -9.7656265
3990.0 -9.7656265
3992.0 -9.15527425
3994.0 -9.15527425
3996.0 -9.7656265
3998.0 -10.37597875
4000.0 -9.15527375
4002.0 -9.15527375
4004.0 -9.15527375
4006.0 -9.15527375
4008.0 -7.934571
4010.0 -7.32421825
4012.0 -6.1035155
4014.0 -4.88281325
4016.0 -3.6621105
4018.0 -2.4414055
4020.0 -1.22070275
4022.0 -0.61035
4024.0 -0.61035
4026.0 2.74999993084e-06
4028.0 2.74999993084e-06
4030.0 -1.83105225
4032.0 -1.83105225
4034.0 -1.83105225
4036.0 -1.83105225
4038.0 -1.2206995
4040.0 3.24999993073e-06
4042.0 3.24999993073e-06
4044.0 0.610356
4046.0 2.441411
4048.0 3.05176375
4050.0 4.27246875
4052.0 5.49317375
4054.0 6.7138765
4056.0 6.7138765
4058.0 7.32422925
4060.0 7.934582
4062.0 6.713877
4064.0 7.32422975
4066.0 7.934582
4068.0 8.54493475
4070.0 8.54493475
4072.0 9.1552875
4074.0 9.76563975
4076.0 10.375992
4078.0 12.207047
4080.0 12.817397
4082.0 14.038102
4084.0 15.25880475
4086.0 15.8691575
4088.0 15.8691575
4090.0 15.8691575
4092.0 15.2588075
4094.0 14.64845525
4096.0 14.03810525
4098.0 13.4277525
4100.0 12.8174025
4102.0 12.8174025
4104.0 13.42775525
4106.0 12.8174025
4108.0 13.42775525
4110.0 14.6484575
4112.0 15.86916025
4114.0 17.08986525
4116.0 18.310568
4118.0 18.310568
4120.0 17.700218
4122.0 18.31057075
4124.0 17.700218
4126.0 16.479513
4128.0 17.089863
4130.0 17.089863
4132.0 16.47951025
4134.0 16.47951025
4136.0 17.08986025
4138.0 17.08986025
4140.0 17.70021025
4142.0 18.92091525
4144.0 18.92091525
4146.0 19.531268
4148.0 19.531268
4150.0 20.75197075
4152.0 21.97267325
4154.0 22.583026
4156.0 23.19337875
4158.0 21.36232375
4160.0 21.36232375
4162.0 21.36232375
4164.0 20.75197375
4166.0 20.75197375
4168.0 20.75197375
4170.0 20.75197375
4172.0 20.75197375
4174.0 22.58302875
4176.0 22.58302875
4178.0 23.1933815
4180.0 23.8037315
4182.0 23.8037315
4184.0 23.8037315
4186.0 24.41408425
4188.0 23.19337925
4190.0 22.583027
4192.0 21.972677
4194.0 21.36232425
4196.0 20.75197425
4198.0 20.1416215
4200.0 20.7519715
4202.0 20.7519715
4204.0 21.36232425
4206.0 23.19337925
4208.0 23.19337925
4210.0 22.5830265
4212.0 23.19337925
4214.0 22.58302925
4216.0 23.19338175
4218.0 23.80373175
4220.0 21.97267675
4222.0 21.362324
4224.0 21.972674
4226.0 21.36232125
4228.0 21.97267125
4230.0 21.36232125
4232.0 20.75196875
4234.0 20.141616
4236.0 20.751966
4238.0 21.972671
4240.0 22.5830235
4242.0 21.97267075
4244.0 22.58302075
4246.0 22.58302075
4248.0 22.58302075
4250.0 21.972668
4252.0 20.751963
4254.0 18.920908
4256.0 19.531258
4258.0 18.310553
4260.0 17.08985025
4262.0 17.08985025
4264.0 17.08985025
4266.0 17.08985025
4268.0 18.31055525
4270.0 19.53126025
4272.0 18.9209075
4274.0 18.9209075
4276.0 18.9209075
4278.0 20.14161025
4280.0 20.14161025
4282.0 20.14161025
4284.0 18.92090525
4286.0 17.7002025
4288.0 17.0898525
4290.0 17.0898525
4292.0 17.0898525
4294.0 16.47949975
4296.0 15.25879725
4298.0 15.25879725
4300.0 16.47950225
4302.0 17.700205
4304.0 17.700205
4306.0 17.700205
4308.0 16.47950225
4310.0 16.47950225
4312.0 15.86915225
4314.0 16.479505
4316.0 15.25880225
4318.0 14.03809725
4320.0 12.81739475
4322.0 12.81739475
4324.0 12.81739475
4326.0 12.81739475
4328.0 12.20704475
4330.0 12.8173975
4332.0 14.6484525
4334.0 15.25880475
4336.0 14.64845475
4338.0 14.64845475
4340.0 15.2588075
4342.0 15.2588075
4344.0 15.8691575
4346.0 15.25880475
4348.0 14.03809975
4350.0 12.81739475
4352.0 13.4277475
4354.0 12.81739525
4356.0 12.2070425
4358.0 10.98633975
4360.0 9.765637
4362.0 9.15528425
4364.0 9.7656365
4366.0 10.37598925
4368.0 10.37598925
4370.0 10.37598925
4372.0 9.7656365
4374.0 10.37598925
4376.0 10.98633925
4378.0 9.7656365
4380.0 8.5449315
4382.0 6.7138765
4384.0 6.1035265
4386.0 6.1035265
4388.0 6.1035265
4390.0 5.49317375
4392.0 4.882821
4394.0 4.27246825
4396.0 4.882821
4398.0 6.103526
4400.0 6.103526
4402.0 5.49317375
4404.0 4.272471
4406.0 3.051766
4408.0 1.831061
4410.0 0.610356
4412.0 -1.220699
4414.0 -2.44140125
4416.0 -3.051754
4418.0 -3.662104
4420.0 -4.882809
4422.0 -5.49316175
4424.0 -7.32421675
4426.0 -7.934569
4428.0 -7.934569
4430.0 -7.32421675
4432.0 -8.54492175
4434.0 -9.15527175
4436.0 -9.15527175
4438.0 -9.15527175
4440.0 -8.544919
4442.0 -8.544919
4444.0 -9.76562125
4446.0 -10.98632625
4448.0 -10.98632625
4450.0 -11.5966785
4452.0 -11.5966785
4454.0 -12.20703125
4456.0 -13.427734
4458.0 -13.427734
4460.0 -12.81738175
4462.0 -12.2070295
4464.0 -13.4277345
4466.0 -14.64843675
4468.0 -15.258789
4470.0 -15.86914125
4472.0 -15.86914125
4474.0 -16.4794935
4476.0 -18.3105485
4478.0 -19.5312535
4480.0 -20.7519585
4482.0 -20.7519585
4484.0 -21.97266075
4486.0 -21.3623085
4488.0 -20.75195625
4490.0 -20.141604
4492.0 -19.53125175
4494.0 -18.3105495
4496.0 -18.3105495
4498.0 -17.08984725
4500.0 -15.86914225
4502.0 -15.2587895
4504.0 -14.0380845
4506.0 -12.8173795
4508.0 -12.8173795
4510.0 -12.20702675
4512.0 -10.37597175
4514.0 -8.54491675
4516.0 -7.934564
4518.0 -6.71386125
4520.0 -6.71386125
4522.0 -6.71386125
4524.0 -4.88280625
4526.0 -4.272454
4528.0 -4.272454
4530.0 -3.66210175
4532.0 -3.051749
4534.0 -3.051749
4536.0 -2.44139625
4538.0 -2.44139625
4540.0 -3.6620985
4542.0 -4.27245075
4544.0 -2.44139575
4546.0 -1.83104575
4548.0 -1.83104575
4550.0 -1.2206935
4552.0 -1.2206935
4554.0 -0.61034125
4556.0 1.22071375
4558.0 2.44141875
4560.0 4.27247375
4562.0 5.49317875
4564.0 7.32423375
4566.0 8.5449365
4568.0 9.15528925
4570.0 9.765642
4572.0 9.15528975
4574.0 9.15528975
4576.0 10.3759925
4578.0 10.98634525
4580.0 10.98634525
4582.0 12.20704775
4584.0 12.20704775
4586.0 12.20704775
4588.0 13.42775275
4590.0 14.03810275
4592.0 14.64845525
4594.0 15.25880525
4596.0 15.86915525
4598.0 15.86915525
4600.0 16.47950525
4602.0 17.089858
4604.0 16.47950525
4606.0 16.47950525
4608.0 17.08985525
4610.0 17.700208
4612.0 17.08985525
4614.0 17.08985525
4616.0 17.08985525
4618.0 17.08985525
4620.0 19.53126025
4622.0 20.1416125
4624.0 19.5312625
4626.0 20.7519675
4628.0 21.9726725
4630.0 22.58302525
4632.0 23.803728
4634.0 23.803728
4636.0 22.583023
4638.0 23.193373
4640.0 23.193373
4642.0 22.58302025
4644.0 22.58302025
4646.0 21.97267025
4648.0 22.58302025
4650.0 23.19337025
4652.0 25.02442525
4654.0 26.245128
4656.0 26.245128
4658.0 26.245128
4660.0 26.245128
4662.0 25.6347755
4664.0 26.2451255
4666.0 26.2451255
4668.0 25.63477275
4670.0 25.02442275
4672.0 23.80372025
4674.0 23.19337025
4676.0 22.58302025
4678.0 21.3623175
4680.0 20.7519675
4682.0 20.7519675
4684.0 20.7519675
4686.0 20.7519675
4688.0 20.1416175
4690.0 19.53126475
4692.0 19.53126475
4694.0 19.53126475
4696.0 20.14161475
4698.0 20.14161475
4700.0 18.31055975
4702.0 18.31055975
4704.0 18.92090975
4706.0 17.70020475
4708.0 17.089852
4710.0 17.700202
4712.0 17.700202
4714.0 18.92090475
4716.0 20.75195975
4718.0 20.14160975
4720.0 20.14160975
4722.0 20.7519625
4724.0 20.7519625
4726.0 20.7519625
4728.0 20.7519625
4730.0 19.53125975
4732.0 17.70020475
4734.0 16.479502
4736.0 16.479502
4738.0 15.86914925
4740.0 15.2587965
4742.0 14.03809375
4744.0 12.817391
4746.0 12.20703825
4748.0 12.20703825
4750.0 11.5966855
4752.0 10.98633275
4754.0 9.76562775
4756.0 9.155275
4758.0 8.54492275
4760.0 7.32421775
4762.0 6.713865
4764.0 5.49316275
4766.0 4.8828105
4768.0 4.8828105
4770.0 4.27245825
4772.0 4.27245825
4774.0 4.27245825
4776.0 3.66210825
4778.0 3.051756
4780.0 4.272461
4782.0 4.88281375
4784.0 5.49316625
4786.0 6.1035185
4788.0 7.32422125
4790.0 6.71387125
4792.0 6.10352125
4794.0 4.8828185
4796.0 2.4414135
4798.0 2.4414135
4800.0 1.8310635
4802.0 1.22071075
4804.0 0.610358
4806.0 5.24999993212e-06
4808.0 -0.61034475
4810.0 -0.61034475
4812.0 7.49999993221e-06
4814.0 7.49999993221e-06
4816.0 -0.6103425
4818.0 -0.6103425
4820.0 1.02499999322e-05
4822.0 1.02499999322e-05
4824.0 0.610363
4826.0 1.0749999932e-05
4828.0 -1.2206915
4830.0 -1.2206915
4832.0 -0.61033875
4834.0 1.3499999932e-05
4836.0 0.61036625
4838.0 1.2207185
4840.0 3.0517735
4842.0 3.66212625
4844.0 5.49318125
4846.0 7.32423625
4848.0 7.93458625
4850.0 9.15529125
4852.0 10.375994
4854.0 10.98634675
4856.0 11.59669675
4858.0 12.207049
4860.0 11.59669625
4862.0 12.20704625
4864.0 11.59669375
4866.0 12.2070465
4868.0 12.2070465
4870.0 12.2070465
4872.0 13.427749
4874.0 14.64845175
4876.0 17.08985675
4878.0 17.70020675
4880.0 18.31055675
4882.0 18.31055675
4884.0 19.5312595
4886.0 20.75196225
4888.0 21.97266475
4890.0 21.97266475
4892.0 21.97266475
4894.0 23.1933675
4896.0 23.8037175
4898.0 24.41407025
4900.0 25.02442025
4902.0 26.8554755
4904.0 27.4658255
4906.0 29.2968805
4908.0 32.348638
4910.0 33.56934075
4912.0 34.79004325
4914.0 36.010746
4916.0 37.2314485
4918.0 39.06250375
4920.0 40.28320625
4922.0 39.6728535
4924.0 39.06250075
4926.0 39.06250075
4928.0 39.67285325
4930.0 39.67285325
4932.0 39.67285325
4934.0 40.28320325
4936.0 40.89355575
4938.0 40.89355575
4940.0 42.1142585
4942.0 42.1142585
4944.0 42.724611
4946.0 43.334961
4948.0 43.9453135
4950.0 44.5556635
4952.0 44.5556635
4954.0 43.33496075
4956.0 42.72461075
4958.0 42.72461075
4960.0 43.94531325
4962.0 45.166016
4964.0 44.555666
4966.0 44.555666
4968.0 44.555666
4970.0 46.38672125
4972.0 48.8281265
4974.0 49.438479
4976.0 50.0488315
4978.0 50.6591815
4980.0 51.269534
4982.0 51.269534
4984.0 51.269534
4986.0 50.04883125
4988.0 48.217776
4990.0 48.217776
4992.0 47.6074235
4994.0 46.38672075
4996.0 45.16601825
4998.0 43.334963
5000.0 42.1142605
5002.0 42.72461325
5004.0 43.945316
5006.0 43.334966
5008.0 42.7246135
5010.0 43.945316
5012.0 44.5556685
5014.0 44.5556685
5016.0 43.945316
5018.0 44.55566875
5020.0 43.94531875
5022.0 44.55567125
5024.0 45.16602125
5026.0 44.55567125
5028.0 43.94531875
5030.0 43.33496875
5032.0 42.72461625
5034.0 43.334969
5036.0 43.945319
5038.0 45.1660215
5040.0 44.5556715
5042.0 43.9453215
5044.0 44.5556715
5046.0 44.5556715
5048.0 43.334969
5050.0 41.50391375
5052.0 39.67286125
5054.0 39.06250875
5056.0 38.45215625
5058.0 37.2314535
5060.0 37.2314535
5062.0 36.010751
5064.0 37.2314535
5066.0 37.84180625
5068.0 39.6728615
5070.0 40.283214
5072.0 43.945314
5074.0 45.77636925
5076.0 46.99707175
5078.0 48.828127
5080.0 50.0488295
5082.0 50.6591795
5084.0 50.6591795
5086.0 51.879882
5088.0 53.710932
5090.0 53.710932
5092.0 53.710932
5094.0 55.541982
5096.0 57.373032
5098.0 59.2040845
5100.0 63.4765345
5102.0 66.528282
5104.0 68.9696795
5106.0 73.2421295
5108.0 76.9042295
5110.0 81.1766795
5112.0 84.8387795
5114.0 85.4491295
5116.0 86.059482
5118.0 85.449132
5120.0 86.6698295
5122.0 87.890532
5124.0 88.5008845
5126.0 89.721587
5128.0 92.162987
5130.0 94.60439225
5132.0 96.43544475
5134.0 97.65614725
5136.0 101.31824725
5138.0 103.7596525
5140.0 104.98035
5142.0 109.2528
5144.0 111.6941975
5146.0 114.1355975
5148.0 115.356295
5150.0 118.4080425
5152.0 118.4080425
5154.0 121.45979
5156.0 124.5115375
5158.0 127.563285
5160.0 130.6150325
5162.0 134.2771325
5164.0 137.9392325
5166.0 140.99098
5168.0 142.82203
5170.0 145.8737775
5172.0 148.925525
5174.0 150.756575
5176.0 152.587625
5178.0 155.0290225
5180.0 153.1979725
5182.0 153.1979725
5184.0 153.1979725
5186.0 153.1979725
5188.0 153.1979725
5190.0 153.1979725
5192.0 153.1979725
5194.0 156.8600725
5196.0 159.91182
5198.0 162.9635675
5200.0 164.7946175
5202.0 167.846365
5204.0 170.8981125
5206.0 173.33951
5208.0 175.17056
5210.0 177.6119575
5212.0 180.053355
5214.0 182.4947525
5216.0 183.1051025
5218.0 185.5465
5220.0 187.37755
5222.0 187.9879
5224.0 188.59825
5226.0 191.03965
5228.0 194.091425
5230.0 194.701775
5232.0 195.312125
5234.0 195.312125
5236.0 195.922475
5238.0 197.1432
5240.0 197.1432
5242.0 197.1432
5244.0 197.1432
5246.0 197.1432
5248.0 197.75355
5250.0 197.75355
5252.0 197.75355
5254.0 197.75355
5256.0 197.75355
5258.0 197.75355
5260.0 199.5846
5262.0 199.5846
5264.0 199.5846
5266.0 199.5846
5268.0 199.5846
5270.0 199.5846
5272.0 199.5846
5274.0 199.5846
5276.0 199.5846
5278.0 199.5846
5280.0 199.5846
5282.0 199.5846
5284.0 199.5846
5286.0 199.5846
5288.0 199.5846
5290.0 199.5846
5292.0 200.19495
5294.0 200.19495
5296.0 199.5846
5298.0 199.5846
5300.0 199.5846
5302.0 198.97425
5304.0 198.3639
5306.0 197.75355
5308.0 196.532825
5310.0 195.922475
5312.0 195.312125
5314.0 195.312125
5316.0 194.701775
5318.0 193.48105
5320.0 192.8707
5322.0 192.8707
5324.0 192.8707
5326.0 192.8707
5328.0 192.26035
5330.0 192.26035
5332.0 192.26035
5334.0 192.26035
5336.0 192.26035
5338.0 189.2086025
5340.0 189.2086025
5342.0 189.2086025
5344.0 189.2086025
5346.0 189.2086025
5348.0 189.2086025
5350.0 189.2086025
5352.0 189.2086025
5354.0 189.2086025
5356.0 189.2086025
5358.0 189.2086025
5360.0 189.2086025
5362.0 189.2086025
5364.0 189.2086025
5366.0 189.8189525
5368.0 189.8189525
5370.0 189.8189525
5372.0 189.2086025
5374.0 189.2086025
5376.0 189.8189525
5378.0 189.8189525
5380.0 189.8189525
5382.0 189.8189525
5384.0 189.8189525
5386.0 189.8189525
5388.0 189.8189525
5390.0 189.8189525
5392.0 189.8189525
5394.0 189.8189525
5396.0 189.8189525
5398.0 189.8189525
5400.0 189.8189525
5402.0 187.377555
5404.0 187.377555
5406.0 187.377555
5408.0 187.377555
5410.0 187.377555
5412.0 187.377555
5414.0 187.377555
5416.0 187.377555
5418.0 190.4293025
5420.0 190.4293025
5422.0 190.4293025
5424.0 190.4293025
5426.0 190.4293025
5428.0 190.4293025
5430.0 190.4293025
5432.0 190.4293025
5434.0 187.987905
5436.0 187.987905
5438.0 187.987905
5440.0 187.987905
5442.0 187.987905
5444.0 187.987905
5446.0 187.377555
5448.0 187.377555
5450.0 187.377555
5452.0 187.377555
5454.0 187.377555
5456.0 186.767205
5458.0 186.767205
5460.0 186.767205
5462.0 186.767205
5464.0 186.767205
5466.0 183.7154575
5468.0 183.7154575
5470.0 183.7154575
5472.0 183.7154575
5474.0 183.7154575
5476.0 183.7154575
5478.0 183.7154575
5480.0 183.7154575
5482.0 186.156855
5484.0 186.156855
5486.0 186.156855
5488.0 186.156855
5490.0 186.156855
5492.0 186.156855
5494.0 186.156855
5496.0 186.156855
5498.0 186.156855
5500.0 186.156855
5502.0 186.156855
5504.0 186.156855
5506.0 186.156855
5508.0 186.156855
5510.0 186.156855
5512.0 186.156855
5514.0 188.5982525
5516.0 188.5982525
5518.0 188.5982525
5520.0 188.5982525
5522.0 188.5982525
5524.0 188.5982525
5526.0 188.5982525
5528.0 188.5982525
5530.0 188.5982525
5532.0 188.5982525
5534.0 188.5982525
5536.0 188.5982525
5538.0 188.5982525
5540.0 188.5982525
5542.0 188.5982525
5544.0 188.5982525
5546.0 191.65
5548.0 189.81895
5550.0 187.3775525
5552.0 185.5465025
5554.0 183.105105
5556.0 183.105105
5558.0 183.105105
5560.0 183.105105
5562.0 180.0533575
5564.0 180.0533575
5566.0 180.0533575
5568.0 180.0533575
5570.0 180.0533575
5572.0 180.0533575
5574.0 180.0533575
5576.0 180.0533575
5578.0 178.8326575
5580.0 178.8326575
5582.0 178.8326575
5584.0 178.8326575
5586.0 178.8326575
5588.0 178.8326575
5590.0 178.8326575
5592.0 178.8326575
5594.0 176.39126
5596.0 176.39126
5598.0 176.39126
5600.0 176.39126
5602.0 173.3395125
5604.0 173.3395125
5606.0 173.3395125
5608.0 173.3395125
5610.0 170.898115
5612.0 170.898115
5614.0 170.898115
5616.0 170.898115
5618.0 168.4567175
5620.0 168.4567175
5622.0 166.01532
5624.0 163.5739225
5626.0 159.9118225
5628.0 161.7428725
5630.0 161.7428725
5632.0 163.5739225
5634.0 163.5739225
5636.0 161.7428725
5638.0 161.7428725
5640.0 161.7428725
5642.0 164.79462
5644.0 164.79462
5646.0 164.79462
5648.0 164.79462
5650.0 164.79462
5652.0 164.79462
5654.0 164.79462
5656.0 162.96357
5658.0 161.7428725
5660.0 161.7428725
5662.0 161.7428725
5664.0 161.7428725
5666.0 159.9118225
5668.0 159.9118225
5670.0 159.9118225
5672.0 159.9118225
5674.0 162.35322
5676.0 162.35322
5678.0 162.35322
5680.0 162.35322
5682.0 163.5739175
5684.0 163.5739175
5686.0 161.13252
5688.0 158.0807725
5690.0 157.4704225
5692.0 155.029025
5694.0 155.029025
5696.0 155.029025
5698.0 155.029025
5700.0 152.5876275
5702.0 155.029025
5704.0 157.4704225
5706.0 159.3014725
5708.0 159.3014725
5710.0 161.74287
5712.0 161.74287
5714.0 164.1842675
5716.0 166.0153175
5718.0 166.0153175
5720.0 166.0153175
5722.0 162.96357
5724.0 162.96357
5726.0 162.96357
5728.0 162.96357
5730.0 162.96357
5732.0 162.96357
5734.0 162.96357
5736.0 164.79462
5738.0 167.2360175
5740.0 167.2360175
5742.0 167.2360175
5744.0 167.2360175
5746.0 169.0670675
5748.0 169.0670675
5750.0 169.0670675
5752.0 166.62567
5754.0 164.1842725
5756.0 164.1842725
5758.0 164.1842725
5760.0 164.1842725
5762.0 166.0153225
5764.0 166.0153225
5766.0 168.45672
5768.0 171.5084675
5770.0 174.560215
5772.0 177.0016125
5774.0 177.0016125
5776.0 177.0016125
5778.0 179.44301
5780.0 181.8844075
5782.0 181.8844075
5784.0 181.8844075
5786.0 183.7154575
5788.0 183.7154575
5790.0 183.7154575
5792.0 183.7154575
5794.0 183.7154575
5796.0 183.7154575
5798.0 183.7154575
5800.0 183.7154575
5802.0 186.767205
5804.0 186.767205
5806.0 186.767205
5808.0 186.767205
5810.0 186.767205
5812.0 186.767205
5814.0 186.767205
5816.0 186.767205
5818.0 186.767205
5820.0 186.767205
5822.0 186.767205
5824.0 186.767205
5826.0 186.767205
5828.0 186.767205
5830.0 186.767205
5832.0 189.2086025
5834.0 191.65
5836.0 191.65
5838.0 191.65
5840.0 191.65
5842.0 191.65
5844.0 191.65
5846.0 191.65
5848.0 191.65
5850.0 191.65
5852.0 192.26035
5854.0 192.26035
5856.0 192.8707
5858.0 192.8707
5860.0 192.8707
5862.0 192.8707
5864.0 193.48105
5866.0 193.48105
5868.0 193.48105
5870.0 193.48105
5872.0 193.48105
5874.0 193.48105
5876.0 193.48105
5878.0 193.48105
5880.0 193.48105
5882.0 193.48105
5884.0 193.48105
5886.0 193.48105
5888.0 193.48105
5890.0 193.48105
5892.0 193.48105
5894.0 193.48105
5896.0 193.48105
5898.0 193.48105
5900.0 193.48105
5902.0 193.48105
5904.0 194.0914
5906.0 194.0914
5908.0 194.0914
5910.0 194.0914
5912.0 194.0914
5914.0 194.0914
5916.0 194.0914
5918.0 194.0914
5920.0 194.0914
5922.0 194.0914
5924.0 194.0914
5926.0 194.0914
5928.0 194.0914
5930.0 194.0914
5932.0 193.48105
5934.0 193.48105
5936.0 192.8707
5938.0 192.8707
5940.0 192.8707
5942.0 192.8707
5944.0 192.26035
5946.0 192.26035
5948.0 192.26035
5950.0 192.26035
5952.0 192.8707
5954.0 192.8707
5956.0 192.8707
5958.0 192.8707
5960.0 192.8707
5962.0 192.8707
5964.0 192.8707
5966.0 192.8707
5968.0 193.48105
5970.0 193.48105
5972.0 193.48105
5974.0 193.48105
5976.0 193.48105
5978.0 193.48105
5980.0 193.48105
5982.0 193.48105
5984.0 192.8707
5986.0 192.8707
5988.0 192.8707
5990.0 192.8707
5992.0 192.8707
5994.0 192.8707
5996.0 192.8707
5998.0 192.8707
6000.0 192.8707
6002.0 192.8707
6004.0 192.8707
6006.0 192.8707
6008.0 192.8707
6010.0 192.8707
6012.0 192.8707
6014.0 192.8707
6016.0 193.48105
6018.0 193.48105
6020.0 194.0914
6022.0 194.0914
6024.0 194.0914
6026.0 194.0914
6028.0 194.0914
6030.0 194.70175
6032.0 194.70175
6034.0 194.70175
6036.0 194.70175
6038.0 194.70175
6040.0 192.8707
6042.0 192.8707
6044.0 192.8707
6046.0 192.8707
6048.0 192.26035
6050.0 192.26035
6052.0 192.26035
6054.0 192.26035
6056.0 192.26035
6058.0 192.26035
6060.0 192.26035
6062.0 192.26035
6064.0 192.26035
6066.0 192.26035
6068.0 192.26035
6070.0 192.26035
6072.0 192.26035
6074.0 192.26035
6076.0 192.26035
6078.0 192.26035
6080.0 192.8707
6082.0 192.8707
6084.0 192.8707
6086.0 192.8707
6088.0 192.8707
6090.0 192.8707
6092.0 192.8707
6094.0 192.8707
6096.0 192.8707
6098.0 192.8707
6100.0 192.26035
6102.0 192.26035
6104.0 192.26035
6106.0 192.26035
6108.0 192.26035
6110.0 191.65
6112.0 191.03965
6114.0 191.03965
6116.0 191.03965
6118.0 191.03965
6120.0 192.8707
6122.0 192.8707
6124.0 192.8707
6126.0 192.8707
6128.0 192.8707
6130.0 192.8707
6132.0 192.8707
6134.0 192.8707
6136.0 192.8707
6138.0 192.8707
6140.0 192.8707
6142.0 192.8707
6144.0 192.8707
6146.0 192.8707
6148.0 192.8707
6150.0 192.8707
6152.0 192.8707
6154.0 192.8707
6156.0 192.8707
6158.0 192.8707
6160.0 192.26035
6162.0 192.26035
6164.0 192.26035
6166.0 192.26035
6168.0 192.26035
6170.0 192.26035
6172.0 192.26035
6174.0 192.26035
6176.0 192.26035
6178.0 192.26035
6180.0 192.26035
6182.0 192.26035
6184.0 192.26035
6186.0 192.8707
6188.0 192.8707
6190.0 192.8707
6192.0 192.8707
6194.0 192.8707
6196.0 192.8707
6198.0 192.8707
6200.0 191.65
6202.0 191.65
6204.0 191.65
6206.0 191.65
6208.0 192.26035
6210.0 192.26035
6212.0 192.26035
6214.0 192.26035
6216.0 192.26035
6218.0 192.26035
6220.0 192.26035
6222.0 192.8707
6224.0 194.091425
6226.0 194.091425
6228.0 194.091425
6230.0 194.091425
6232.0 194.091425
6234.0 194.091425
6236.0 194.701775
6238.0 195.312125
6240.0 195.922475
6242.0 195.922475
6244.0 196.532825
6246.0 196.532825
6248.0 197.75355
6250.0 197.75355
6252.0 197.75355
6254.0 197.75355
6256.0 197.1432
6258.0 197.1432
6260.0 197.1432
6262.0 197.1432
6264.0 197.1432
6266.0 196.53285
6268.0 196.53285
6270.0 196.53285
6272.0 196.53285
6274.0 196.53285
6276.0 196.53285
6278.0 196.53285
6280.0 197.75355
6282.0 197.75355
6284.0 197.75355
6286.0 197.75355
6288.0 197.1432
6290.0 197.1432
6292.0 197.1432
6294.0 197.1432
6296.0 194.7018025
6298.0 194.7018025
6300.0 194.7018025
6302.0 194.7018025
6304.0 194.0914275
6306.0 194.0914275
6308.0 194.0914275
6310.0 194.0914275
6312.0 194.0914275
6314.0 194.0914275
6316.0 193.4810775
6318.0 192.8707275
6320.0 192.2603775
6322.0 192.2603775
6324.0 191.6500275
6326.0 191.6500275
6328.0 190.4293025
6330.0 190.4293025
6332.0 190.4293025
6334.0 190.4293025
6336.0 190.4293025
6338.0 190.4293025
6340.0 190.4293025
6342.0 190.4293025
6344.0 190.4293025
6346.0 190.4293025
6348.0 190.4293025
6350.0 190.4293025
6352.0 191.0396525
6354.0 191.0396525
6356.0 191.0396525
6358.0 191.0396525
6360.0 191.0396525
6362.0 191.0396525
6364.0 191.0396525
6366.0 191.6500025
6368.0 191.6500025
6370.0 191.6500025
6372.0 191.6500025
6374.0 191.6500025
6376.0 194.0914
6378.0 194.0914
6380.0 194.0914
6382.0 193.48105
6384.0 192.8707
6386.0 192.8707
6388.0 192.8707
6390.0 192.8707
6392.0 192.8707
6394.0 192.8707
6396.0 192.8707
6398.0 192.8707
6400.0 193.48105
6402.0 193.48105
6404.0 193.48105
6406.0 193.48105
6408.0 194.0914
6410.0 194.0914
6412.0 194.0914
6414.0 194.0914
6416.0 194.0914
6418.0 194.0914
6420.0 194.0914
6422.0 194.0914
6424.0 194.0914
6426.0 194.0914
6428.0 194.0914
6430.0 194.0914
6432.0 193.48105
6434.0 193.48105
6436.0 193.48105
6438.0 193.48105
6440.0 187.987895
6442.0 170.89807
6444.0 155.028945
6446.0 154.418595
6448.0 164.18422
6450.0 210.57097
6452.0 354.00372
6454.0 733.02997
6456.0 1408.68872
6458.0 2366.93997
6460.0 3038.93622
6462.0 3286.12747
6464.0 3294.672395
6466.0 3231.195895
6468.0 3314.203645
6470.0 3534.540645
6472.0 3926.994395
6474.0 4369.498145
6476.0 4744.864395
6478.0 5109.853145
6480.0 5405.871545
6482.0 5659.777795
6484.0 5875.231795
6486.0 6119.982795
6488.0 6370.226195
6490.0 6608.873695
6492.0 6903.062445
6494.0 7264.388695
6496.0 7689.192445
6498.0 8040.753695
6500.0 8309.917445
6502.0 8529.033695
6504.0 8839.702445
6506.0 9119.241195
6508.0 9363.381945
6510.0 9656.350695
6512.0 9951.759445
6514.0 10241.675695
6516.0 10441.260695
6518.0 10599.341695
6520.0 10775.73335
6522.0 11076.024425
6524.0 11466.0373
6526.0 11888.40105
6528.0 12255.831675
6530.0 12481.051175
6532.0 12562.227925
6534.0 12398.045425
6536.0 11974.460425
6538.0 11277.437925
6540.0 10877.657925
6542.0 10913.667925
6544.0 11159.02925
6546.0 11440.40125
6548.0 11553.92675
6550.0 11549.65425
6552.0 11411.10675
6554.0 11252.41425
6556.0 11171.84675
6558.0 11120.57675
6560.0 11136.44675
6562.0 11177.94925
6564.0 11244.4765
6566.0 11251.18925
6568.0 11221.89325
6570.0 11179.779
6572.0 11129.731
6574.0 11342.136
6576.0 11807.836
6578.0 12416.9685
6580.0 13092.0185
6582.0 13903.786
6584.0 14837.0135
6586.0 15866.6785
6588.0 16931.1315
6590.0 18064.554
6592.0 19296.244
6594.0 20476.054
6596.0 21624.12525
6598.0 22713.603
6600.0 23748.14825
6602.0 24672.22325
6604.0 25496.81075
6606.0 26180.40325
6608.0 26785.26325
6610.0 27353.50075
6612.0 27932.115
6614.0 28523.545
6616.0 29111.925
6618.0 29649.035
6620.0 30110.4625
6622.0 30519.4
6624.0 30942.985
6626.0 31376.33575
6628.0 31820.06125
6630.0 32373.0405
6632.0 32946.7705
6634.0 33472.2855
6636.0 34020.993
6638.0 34611.8155
6640.0 35322.2655
6642.0 36094.3605
6644.0 36891.4805
6646.0 37786.868
6648.0 38797.609
6650.0 39814.4545
6652.0 40647.585
6654.0 41071.7775
6656.0 41173.705
6658.0 41214.5975
6660.0 41182.86
6662.0 40952.1475
6664.0 40443.115
6666.0 39818.115
6668.0 39183.96
6670.0 38474.1225
6672.0 37714.235
6674.0 36979.3725
6676.0 36386.11
6678.0 35940.5525
6680.0 35595.095
6682.0 35304.5675
6684.0 35043.3375
6686.0 34937.1375
6688.0 35041.5075
6690.0 35191.0425
6692.0 35286.2575
6694.0 35449.8325
6696.0 35629.275
6698.0 35872.195
6700.0 36185.305
6702.0 36515.505
6704.0 36823.12
6706.0 37205.81
6708.0 37659.9125
6710.0 37984.62
6712.0 38254.395
6714.0 38477.7825
6716.0 38577.27
6718.0 38600.4625
6720.0 38533.325
6722.0 38377.6875
6724.0 38184.8175
6726.0 37907.1075
6728.0 37471.3175
6730.0 37125.8575
6732.0 37034.915
6734.0 37014.775
6736.0 37009.2825
6738.0 36974.4925
6740.0 36988.53
6742.0 37121.5875
6744.0 37365.1175
6746.0 37691.045
6748.0 38115.85
6750.0 38533.94
6752.0 38782.355
6754.0 38966.68
6756.0 39140.02
6758.0 39315.8025
6760.0 39521.49
6762.0 39757.085
6764.0 39949.345
6766.0 39986.575
6768.0 39887.0875
6770.0 39945.6825
6772.0 40178.835
6774.0 40332.0325
6776.0 40347.2925
6778.0 40245.975
6780.0 40128.1775
6782.0 40062.87
6784.0 40084.845
6786.0 40138.555
6788.0 40206.3025
6790.0 40292.36
6792.0 40377.81
6794.0 40560.9175
6796.0 40941.7775
6798.0 41491.705
6800.0 42142.34
6802.0 42739.2625
6804.0 43183.5975
6806.0 43538.21
6808.0 43929.445
6810.0 44349.3675
6812.0 44691.165
6814.0 44921.2675
6816.0 44974.3675
6818.0 44956.0575
6820.0 44967.655
6822.0 45050.6625
6824.0 45195.315
6826.0 45382.6925
6828.0 45424.805
6830.0 45299.0725
6832.0 45223.3875
6834.0 45285.645
6836.0 45472.4125
6838.0 45682.9825
6840.0 45789.185
6842.0 45785.5225
6844.0 45759.2775
6846.0 45785.5225
6848.0 45946.045
6850.0 46198.12
6852.0 46430.055
6854.0 46596.0725
6856.0 46707.7675
6858.0 46882.9375
6860.0 47117.3125
6862.0 47377.9325
6864.0 47584.23
6866.0 47603.7625
6868.0 47400.515
6870.0 47067.875
6872.0 46702.275
6874.0 46329.35
6876.0 45872.195
6878.0 45253.91
6880.0 44480.5925
6882.0 43853.1525
6884.0 43573.6125
6886.0 43570.5625
6888.0 43698.7375
6890.0 43790.29
6892.0 43898.9325
6894.0 44152.2275
6896.0 44597.175
6898.0 45164.1925
6900.0 45780.6475
6902.0 46217.0475
6904.0 46305.55
6906.0 46127.9375
6908.0 45896.005
6910.0 45817.88
6912.0 45802.01
6914.0 45654.915
6916.0 45277.1075
6918.0 44816.2925
6920.0 44426.8875
6922.0 44262.0925
6924.0 44330.4525
6926.0 44519.0525
6928.0 44682.6275
6930.0 44721.08
6932.0 44766.245
6934.0 44965.8275
6936.0 45361.335
6938.0 45759.285
6940.0 46069.9525
6942.0 46250.0075
6944.0 46333.015
6946.0 46491.095
6948.0 46773.69
6950.0 47026.985
6952.0 47135.0175
6954.0 47140.51
6956.0 47101.4475
6958.0 47074.59
6960.0 47088.02
6962.0 47100.225
6964.0 47011.1125
6966.0 46820.6825
6968.0 46586.3075
6970.0 46384.8925
6972.0 46229.2525
6974.0 46106.5725
6976.0 45944.8275
6978.0 45704.3475
6980.0 45390.015
6982.0 45110.475
6984.0 45024.415
6986.0 45094.6075
6988.0 45208.1325
6990.0 45206.3025
6992.0 45136.1125
6994.0 45133.67
6996.0 45238.04
6998.0 45409.55
7000.0 45560.9175
7002.0 45469.365
7004.0 45143.435
7006.0 44747.3175
7008.0 44332.2775
7010.0 43968.5075
7012.0 43598.025
7014.0 43148.1975
7016.0 42648.93
7018.0 42186.285
7020.0 41791.3875
7022.0 41542.3625
7024.0 41449.59
7026.0 41370.855
7028.0 41252.445
7030.0 41248.1725
7032.0 41414.7975
7034.0 41636.355
7036.0 41845.705
7038.0 41990.97
7040.0 42076.4175
7042.0 42075.1975
7044.0 41996.4625
7046.0 41885.3775
7048.0 41785.89
7050.0 41589.3575
7052.0 41275.025
7054.0 40927.125
7056.0 40679.9325
7058.0 40551.15
7060.0 40456.545
7062.0 40400.3925
7064.0 40354.005
7066.0 40323.4875
7068.0 40364.9925
7070.0 40523.6825
7072.0 40756.8375
7074.0 40952.76
7076.0 41058.9625
7078.0 41038.82
7080.0 40947.8775
7082.0 40901.49
7084.0 40917.36
7086.0 40922.8525
7088.0 40877.6875
7090.0 40751.955
7092.0 40596.925
7094.0 40515.1375
7096.0 40516.9675
7098.0 40563.9625
7100.0 40598.1425
7102.0 40557.86
7104.0 40451.6575
7106.0 40345.455
7108.0 40280.7575
7110.0 40233.15
7112.0 40159.2975
7114.0 40075.68
7116.0 39987.18
7118.0 39893.795
7120.0 39790.645
7122.0 39696.65
7124.0 39614.2525
7126.0 39503.78
7128.0 39393.305
7130.0 39326.165
7132.0 39254.755
7134.0 39143.06
7136.0 38959.345
7138.0 38735.955
7140.0 38563.2275
7142.0 38478.9975
7144.0 38465.57
7146.0 38458.855
7148.0 38392.325
7150.0 38251.945
7152.0 38104.24
7154.0 38049.31
7156.0 38123.1625
7158.0 38265.985
7160.0 38392.3275
7162.0 38447.87
7164.0 38460.0775
7166.0 38478.9975
7168.0 38536.37
7170.0 38627.9225
7172.0 38699.3325
7174.0 38689.5675
7176.0 38562.615
7178.0 38371.575
7180.0 38176.2625
7182.0 37998.04
7184.0 37844.8425
7186.0 37709.955
7188.0 37589.1075
7190.0 37479.855
7192.0 37419.43
7194.0 37402.34
7196.0 37413.3275
7198.0 37474.3625
7200.0 37590.33
7202.0 37741.0875
7204.0 37908.325
7206.0 38056.64
7208.0 38093.2625
7210.0 38042.6025
7212.0 37982.7875
7214.0 37938.2325
7216.0 37919.3125
7218.0 37897.34
7220.0 37836.915
7222.0 37727.6625
7224.0 37579.9575
7226.0 37464.6025
7228.0 37459.11
7230.0 37542.1175
7232.0 37642.215
7234.0 37690.4325
7236.0 37653.81
7238.0 37587.2825
7240.0 37568.36
7242.0 37609.865
7244.0 37642.8225
7246.0 37617.8
7248.0 37528.0775
7250.0 37399.295
7252.0 37284.55
7254.0 37219.2425
7256.0 37224.125
7258.0 37274.785
7260.0 37333.38
7262.0 37396.855
7264.0 37462.7725
7266.0 37550.665
7268.0 37670.2925
7270.0 37826.5425
7272.0 37987.065
7274.0 38152.47
7276.0 38372.805
7278.0 38690.8
7280.0 39087.53
7282.0 39525.1525
7284.0 39976.8125
7286.0 40480.9625
7288.0 41084.6
7290.0 41715.095
7292.0 42302.8625
7294.0 42811.895
7296.0 43176.275
7298.0 43381.9625
7300.0 43449.71
7302.0 43435.6725
7304.0 43378.91
7306.0 43275.15
7308.0 43085.33
7310.0 42875.37
7312.0 42753.91
7314.0 42745.975
7316.0 42860.7225
7318.0 43107.915
7320.0 43436.895
7322.0 43790.8975
7324.0 44163.2125
7326.0 44578.25
7328.0 45048.8325
7330.0 45541.995
7332.0 45983.89
7334.0 46287.235
7336.0 46442.265
7338.0 46501.47
7340.0 46545.415
7342.0 46604.62
7344.0 46676.0325
7346.0 46726.69
7348.0 46727.3
7350.0 46671.1475
7352.0 46604.62
7354.0 46553.96
7356.0 46436.7725
7358.0 46166.385
7360.0 45767.215
7362.0 45342.41
7364.0 44932.8625
7366.0 44497.0725
7368.0 44035.6475
7370.0 43612.0625
7372.0 43285.525
7374.0 43095.095
7376.0 43107.3025
7378.0 43341.6775
7380.0 43745.73
7382.0 44169.315
7384.0 44548.3425
7386.0 44906.0075
7388.0 45315.555
7390.0 45733.035
7392.0 46037.6
7394.0 46222.5375
7396.0 46300.0525
7398.0 46318.3625
7400.0 46364.14
7402.0 46487.4325
7404.0 46729.1325
7406.0 47044.685
7408.0 47326.665
7410.0 47529.9125
7412.0 47667.8525
7414.0 47817.9975
7416.0 48015.75
7418.0 48206.79
7420.0 48305.055
7422.0 48289.7975
7424.0 48173.22
7426.0 48024.905
7428.0 47943.73
7430.0 47949.2225
7432.0 48074.345
7434.0 48294.0725
7436.0 48612.6775
7438.0 49025.8875
7440.0 49469.0025
7442.0 49876.7175
7444.0 50263.68
7446.0 50637.215
7448.0 50941.78
7450.0 51160.2875
7452.0 51265.88
7454.0 51230.48
7456.0 51071.1775
7458.0 50872.815
7460.0 50701.3075
7462.0 50639.05
7464.0 50731.825
7466.0 50934.4625
7468.0 51118.7875
7470.0 51247.57
7472.0 51373.9125
7474.0 51490.4875
7476.0 51554.5725
7478.0 51472.175
7480.0 51211.555
7482.0 50797.125
7484.0 50217.29
7486.0 49520.2675
7488.0 48850.1025
7490.0 48349.615
7492.0 48112.7975
7494.0 48153.08
7496.0 48391.1175
7498.0 48760.99
7500.0 49234.0125
7502.0 49762.575
7504.0 50339.3575
7506.0 50941.775
7508.0 51478.8825
7510.0 51848.755
7512.0 51879.8825
7514.0 51558.8375
7516.0 51018.065
7518.0 50422.36
7520.0 49847.4075
7522.0 49317.6225
7524.0 48822.6275
7526.0 48387.4475
7528.0 48067.6225
7530.0 47943.72
7532.0 48079.2175
7534.0 48433.8325
7536.0 48886.1025
7538.0 49211.42
7540.0 49400.63
7542.0 49505.0
7544.0 49530.635
7546.0 49470.82
7548.0 49324.3375
7550.0 49061.2775
7552.0 48709.715
7554.0 48352.05
7556.0 48093.2625
7558.0 48021.85
7560.0 48078.0025
7562.0 48191.5275
7564.0 48342.285
7566.0 48560.18
7568.0 48834.8375
7570.0 49085.08
7572.0 49218.1375
7574.0 49177.855
7576.0 48985.595
7578.0 48714.5975
7580.0 48428.9525
7582.0 48171.385
7584.0 47949.8275
7586.0 47697.1425
7588.0 47410.8875
7590.0 47183.2275
7592.0 47139.8925
7594.0 47296.1425
7596.0 47542.115
7598.0 47755.1275
7600.0 47936.4025
7602.0 48106.69
7604.0 48255.6175
7606.0 48366.7
7608.0 48401.49
7610.0 48317.2625
7612.0 48101.1975
7614.0 47819.215
7616.0 47543.335
7618.0 47390.135
7620.0 47317.5025
7622.0 47241.82
7624.0 47134.3975
7626.0 47030.6375
7628.0 47012.935
7630.0 47130.1225
7632.0 47315.06
7634.0 47492.6725
7636.0 47596.4325
7638.0 47588.4975
7640.0 47521.3575
7642.0 47474.3625
7644.0 47470.09
7646.0 47448.73
7648.0 47357.1775
7650.0 47199.0975
7652.0 47026.3675
7654.0 46867.065
7656.0 46748.0475
7658.0 46680.91
7660.0 46643.07
7662.0 46607.67
7664.0 46583.255
7666.0 46622.9275
7668.0 46735.2325
7670.0 46877.445
7672.0 47006.84
7674.0 47124.0275
7676.0 47244.8775
7678.0 47373.6625
7680.0 47488.4075
7682.0 47566.5325
7684.0 47583.01
7686.0 47534.7925
7688.0 47460.94
7690.0 47376.1
7692.0 47273.56
7694.0 47152.71
7696.0 47012.33
7698.0 46853.64
7700.0 46674.8075
7702.0 46505.74
7704.0 46397.0975
7706.0 46350.71
7708.0 46352.5425
7710.0 46399.54
7712.0 46487.43
7714.0 46593.02
7716.0 46724.855
7718.0 46890.8725
7720.0 47080.6925
7722.0 47258.305
7724.0 47399.2975
7726.0 47489.6275
7728.0 47506.7175
7730.0 47456.0575
7732.0 47338.87
7734.0 47183.2325
7736.0 47008.67
7738.0 46806.6425
7740.0 46596.07
7742.0 46409.3025
7744.0 46231.08
7746.0 46062.6225
7748.0 45919.19
7750.0 45810.5475
7752.0 45741.5775
7754.0 45695.19
7756.0 45676.2675
7758.0 45678.0975
7760.0 45698.24
7762.0 45725.095
7764.0 45781.2475
7766.0 45885.0075
7768.0 46015.6225
7770.0 46155.3925
7772.0 46301.2675
7774.0 46434.935
7776.0 46552.1225
7778.0 46611.9375
7780.0 46589.3525
7782.0 46544.7975
7784.0 46476.4375
7786.0 46372.0675
7788.0 46199.9475
7790.0 45942.3775
7792.0 45636.5925
7794.0 45354.0
7796.0 45125.1175
7798.0 44959.7125
7800.0 44871.8225
7802.0 44862.055
7804.0 44875.4825
7806.0 44889.5225
7808.0 44948.1175
7810.0 45078.1225
7812.0 45269.1625
7814.0 45470.5775
7816.0 45620.115
7818.0 45690.9175
7820.0 45679.9325
7822.0 45617.675
7824.0 45535.2775
7826.0 45434.57
7828.0 45307.0075
7830.0 45146.485
7832.0 44956.665
7834.0 44782.105
7836.0 44672.8525
7838.0 44642.335
7840.0 44663.0875
7842.0 44710.085
7844.0 44772.9525
7846.0 44837.65
7848.0 44907.23
7850.0 44976.81
7852.0 45012.82
7854.0 44979.25
7856.0 44871.8275
7858.0 44767.4575
7860.0 44719.24
7862.0 44671.0225
7864.0 44603.885
7866.0 44515.995
7868.0 44440.9225
7870.0 44412.8475
7872.0 44434.82
7874.0 44490.9725
7876.0 44557.5025
7878.0 44593.5125
7880.0 44580.695
7882.0 44523.9325
7884.0 44486.7
7886.0 44512.945
7888.0 44560.5525
7890.0 44560.5525
7892.0 44492.8025
7894.0 44389.0425
7896.0 44293.2175
7898.0 44228.52
7900.0 44197.3925
7902.0 44169.3175
7904.0 44116.8275
7906.0 44053.96
7908.0 44020.39
7910.0 44026.4925
7912.0 44075.32
7914.0 44133.915
7916.0 44163.2125
7918.0 44157.72
7920.0 44141.85
7922.0 44122.93
7924.0 44083.2575
7926.0 44022.2225
7928.0 43934.3325
7930.0 43813.4825
7932.0 43687.14
7934.0 43589.4825
7936.0 43528.4475
7938.0 43489.995
7940.0 43480.23
7942.0 43510.7475
7944.0 43557.1325
7946.0 43600.4675
7948.0 43651.1275
7950.0 43721.3175
7952.0 43796.39
7954.0 43853.7625
7956.0 43882.4475
7958.0 43880.6175
7960.0 43835.45
7962.0 43747.56
7964.0 43647.4625
7966.0 43547.365
7968.0 43458.8625
7970.0 43373.415
7972.0 43257.45
7974.0 43129.8875
7976.0 43034.6725
7978.0 42991.3375
7980.0 42977.2975
7982.0 42980.96
7984.0 42994.9975
7986.0 43002.9325
7988.0 42987.0625
7990.0 42980.35
7992.0 43012.7
7994.0 43079.2275
7996.0 43141.4825
7998.0 43175.6625
8000.0 43179.935
8002.0 43162.235
8004.0 43138.43
8006.0 43122.56
8008.0 43110.3525
8010.0 43082.8875
8012.0 43025.515
8014.0 42948.6125
8016.0 42885.1375
8018.0 42859.5025
8020.0 42867.4375
8022.0 42887.5775
8024.0 42919.3175
8026.0 42969.3675
8028.0 43027.96
8030.0 43096.32
8032.0 43178.7175
8034.0 43242.805
8036.0 43259.895
8038.0 43228.765
8040.0 43173.225
8042.0 43101.2025
8044.0 43012.0925
8046.0 42906.5
8048.0 42793.585
8050.0 42698.98
8052.0 42666.63
8054.0 42691.655
8056.0 42750.2475
8058.0 42831.425
8060.0 42941.29
8062.0 43080.45
8064.0 43245.855
8066.0 43403.9375
8068.0 43518.685
8070.0 43562.63
8072.0 43526.0075
8074.0 43432.0125
8076.0 43317.2675
8078.0 43203.7425
8080.0 43081.6725
8082.0 42944.9525
8084.0 42805.7925
8086.0 42697.76
8088.0 42659.3075
8090.0 42705.695
8092.0 42792.365
8094.0 42863.165
8096.0 42879.6425
8098.0 42855.2275
8100.0 42827.15
8102.0 42791.14
8104.0 42741.09
8106.0 42664.795
8108.0 42557.9825
8110.0 42423.705
8112.0 42293.09
8114.0 42212.525
8116.0 42188.7225
8118.0 42195.4375
8120.0 42218.02
8122.0 42261.965
8124.0 42326.66
8126.0 42412.72
8128.0 42503.6625
8130.0 42595.825
8132.0 42676.3925
8134.0 42739.8675
8136.0 42784.425
8138.0 42787.475
8140.0 42740.4775
8142.0 42644.0425
8144.0 42512.8175
8146.0 42386.4725
8148.0 42297.36
8150.0 42244.87
8152.0 42221.0675
8154.0 42226.56
8156.0 42307.125
8158.0 42486.5675
8160.0 42785.03
8162.0 43197.0175
8164.0 43659.665
8166.0 44125.365
8168.0 44535.5225
8170.0 44871.215
8172.0 45205.0775
8174.0 45533.4475
8176.0 45795.29
8178.0 45931.4
8180.0 45927.1275
8182.0 45839.8475
8184.0 45720.83
8186.0 45590.215
8188.0 45458.99
8190.0 45345.465
8192.0 45260.015
8194.0 45216.68
8196.0 45245.975
8198.0 45399.7825
8200.0 45663.455
8202.0 45988.1625
8204.0 46337.895
8206.0 46672.3675
8208.0 46992.8025
8210.0 47292.485
8212.0 47556.7675
8214.0 47761.235
8216.0 47875.37
8218.0 47899.175
8220.0 47861.3325
8222.0 47796.025
8224.0 47725.835
8226.0 47655.645
8228.0 47580.5725
8230.0 47504.8875
8232.0 47427.9825
8234.0 47352.91
8236.0 47261.3575
8238.0 47146.6125
8240.0 46991.5825
8242.0 46790.1675
8244.0 46568.61
8246.0 46333.6225
8248.0 46135.2575
8250.0 45994.8775
8252.0 45864.2625
8254.0 45764.775
8256.0 45758.06
8258.0 45872.195
8260.0 46087.04
8262.0 46364.75
8264.0 46675.4175
8266.0 47008.67
8268.0 47369.3875
8270.0 47728.8825
8272.0 48041.3825
8274.0 48286.1325
8276.0 48445.435
8278.0 48486.94
8280.0 48434.4475
8282.0 48328.8575
8284.0 48200.6825
8286.0 48088.3775
8288.0 47979.735
8290.0 47866.82
8292.0 47786.8625
8294.0 47775.2675
8296.0 47848.51
8298.0 48010.2525
8300.0 48235.4725
8302.0 48483.275
8304.0 48731.6875
8306.0 48990.4775
8308.0 49270.63
8310.0 49561.1575
8312.0 49844.36
8314.0 50103.76
8316.0 50322.8775
8318.0 50502.93
8320.0 50651.245
8322.0 50772.095
8324.0 50873.4125
8326.0 50936.89
8328.0 50933.2275
8330.0 50870.36
8332.0 50795.285
8334.0 50733.64
8336.0 50676.8775
8338.0 50614.6225
8340.0 50545.6525
8342.0 50475.4625
8344.0 50421.7525
8346.0 50402.83
8348.0 50405.8825
8350.0 50425.415
8352.0 50460.815
8354.0 50496.825
8356.0 50545.6525
8358.0 50621.335
8360.0 50696.41
8362.0 50759.8875
8364.0 50812.99
8366.0 50852.6625
8368.0 50891.725
8370.0 50932.0075
8372.0 50949.7075
8374.0 50929.565
8376.0 50873.4125
8378.0 50797.1175
8380.0 50727.5375
8382.0 50678.0975
8384.0 50633.5425
8386.0 50556.0275
8388.0 50434.5675
8390.0 50293.5775
8392.0 50169.6775
8394.0 50078.735
8396.0 50015.8675
8398.0 49964.5975
8400.0 49916.38
8402.0 49880.3675
8404.0 49869.3825
8406.0 49898.68
8408.0 49978.6375
8410.0 50095.825
8412.0 50211.1825
8414.0 50312.5
8416.0 50388.795
8418.0 50443.725
8420.0 50486.45
8422.0 50509.6425
8424.0 50494.9925
8426.0 50437.62
8428.0 50341.795
8430.0 50216.6725
8432.0 50072.02
8434.0 49914.55
8436.0 49755.86
8438.0 49605.105
8440.0 49484.865
8442.0 49404.9075
8444.0 49354.8575
8446.0 49324.9525
8448.0 49315.7975
8450.0 49335.33
8452.0 49378.665
8454.0 49436.6475
8456.0 49492.8
8458.0 49539.7975
8460.0 49569.095
8462.0 49572.7575
8464.0 49550.785
8466.0 49520.2675
8468.0 49491.58
8470.0 49470.2175
8472.0 49448.245
8474.0 49414.065
8476.0 49365.2375
8478.0 49297.49
8480.0 49212.6525
8482.0 49113.7775
8484.0 49008.185
8486.0 48908.6975
8488.0 48808.6
8490.0 48712.775
8492.0 48637.7025
8494.0 48583.38
8496.0 48562.6275
8498.0 48580.9375
8500.0 48626.1025
8502.0 48690.8
8504.0 48764.0425
8506.0 48837.285
8508.0 48905.035
8510.0 48952.6425
8512.0 48976.4475
8514.0 48988.045
8516.0 48984.9925
8518.0 48955.695
8520.0 48891.6075
8522.0 48790.29
8524.0 48654.7925
8526.0 48500.3725
8528.0 48343.5125
8530.0 48198.2475
8532.0 48077.3975
8534.0 47974.86
8536.0 47905.89
8538.0 47888.19
8540.0 47916.875
8542.0 47985.845
8544.0 48099.37
8546.0 48249.5175
8548.0 48414.9225
8550.0 48568.73
8552.0 48695.0725
8554.0 48784.795
8556.0 48826.3
8558.0 48831.7925
8560.0 48812.26
8562.0 48765.2625
8564.0 48673.71
8566.0 48527.225
8568.0 48348.39
8570.0 48153.6875
8572.0 47960.815
8574.0 47799.0725
8576.0 47678.8325
8578.0 47581.7875
8580.0 47508.545
8582.0 47473.145
8584.0 47487.795
8586.0 47545.1675
8588.0 47630.615
8590.0 47736.8175
8592.0 47847.29
8594.0 47929.075
8596.0 47963.865
8598.0 47958.9825
8600.0 47926.635
8602.0 47883.3
8604.0 47836.9125
8606.0 47784.4225
8608.0 47732.5425
8610.0 47678.2225
8612.0 47615.9675
8614.0 47563.4775
8616.0 47536.01
8618.0 47522.5825
8620.0 47504.8825
8622.0 47476.195
8624.0 47429.1975
8626.0 47363.2775
8628.0 47291.8675
8630.0 47218.625
8632.0 47148.435
8634.0 47082.5175
8636.0 47021.4825
8638.0 46967.7725
8640.0 46932.9825
8642.0 46928.1
8644.0 46962.28
8646.0 47039.795
8648.0 47150.27
8650.0 47279.055
8652.0 47403.5675
8654.0 47502.445
8656.0 47567.1425
8658.0 47605.595
8660.0 47620.245
8662.0 47608.6475
8664.0 47570.805
8666.0 47506.7175
8668.0 47411.5025
8670.0 47293.7025
8672.0 47175.905
8674.0 47088.015
8676.0 47038.5775
8678.0 47014.1625
8680.0 47000.125
8682.0 46985.475
8684.0 46977.54
8686.0 46987.305
8688.0 47006.225
8690.0 47031.25
8692.0 47066.65
8694.0 47098.3875
8696.0 47107.545
8698.0 47091.065
8700.0 47073.365
8702.0 47073.365
8704.0 47085.5725
8706.0 47101.4425
8708.0 47110.5975
8710.0 47119.7525
8712.0 47136.23
8714.0 47172.85
8716.0 47233.885
8718.0 47302.855
8720.0 47349.8525
8722.0 47363.28
8724.0 47345.58
8726.0 47305.2975
8728.0 47242.43
8730.0 47154.54
8732.0 47044.6775
8734.0 46917.725
8736.0 46782.2275
8738.0 46658.325
8740.0 46559.4475
8742.0 46483.765
8744.0 46423.95
8746.0 46382.4475
8748.0 46372.6825
8750.0 46401.37
8752.0 46452.03
8754.0 46502.08
8756.0 46548.465
8758.0 46600.955
8760.0 46665.04
8762.0 46737.0625
8764.0 46795.0475
8766.0 46819.4625
8768.0 46807.255
8770.0 46763.92
8772.0 46702.885
8774.0 46647.9525
8776.0 46597.9025
8778.0 46540.53
8780.0 46468.51
8782.0 46381.8425
8784.0 46293.3425
8786.0 46207.2825
8788.0 46126.105
8790.0 46054.085
8792.0 45983.285
8794.0 45905.16
8796.0 45821.54
8798.0 45742.1925
8800.0 45690.3125
8802.0 45679.935
8804.0 45712.895
8806.0 45784.915
8808.0 45887.455
8810.0 46011.355
8812.0 46151.125
8814.0 46296.3875
8816.0 46440.43
8818.0 46569.215
8820.0 46658.3275
8822.0 46688.845
8824.0 46654.665
8826.0 46556.3975
8828.0 46400.7575
8830.0 46199.3425
8832.0 45983.2775
8834.0 45779.42
8836.0 45593.265
8838.0 45433.3525
8840.0 45316.165
8842.0 45260.6225
8844.0 45281.375
8846.0 45380.8625
8848.0 45540.165
8850.0 45717.775
8852.0 45882.57
8854.0 46015.0175
8856.0 46123.05
8858.0 46218.265
8860.0 46271.365
8862.0 46255.495
8864.0 46182.2525
8866.0 46073.0
8868.0 45959.475
8870.0 45854.495
8872.0 45764.7725
8874.0 45698.245
8876.0 45657.3525
8878.0 45645.1475
8880.0 45652.4725
8882.0 45665.9
8884.0 45673.8325
8886.0 45669.56
8888.0 45648.8075
8890.0 45607.915
8892.0 45547.49
8894.0 45469.975
8896.0 45372.32
8898.0 45263.0675
8900.0 45169.0725
8902.0 45117.8025
8904.0 45123.9075
8906.0 45182.5025
8908.0 45283.21
8910.0 45411.3825
8912.0 45544.4375
8914.0 45676.8825
8916.0 45805.055
8918.0 45904.5425
8920.0 45941.165
8922.0 45894.1675
8924.0 45770.265
8926.0 45587.1575
8928.0 45369.2625
8930.0 45148.3175
8932.0 44945.07
8934.0 44767.4575
8936.0 44614.26
8938.0 44494.02
8940.0 44456.1775
8942.0 44530.64
8944.0 44690.55
8946.0 44901.1225
8948.0 45123.9
8950.0 45345.4575
8952.0 45567.0175
8954.0 45773.925
8956.0 45949.705
8958.0 46083.37
8960.0 46169.43
8962.0 46199.3375
8964.0 46190.7925
8966.0 46165.77
8968.0 46128.54
8970.0 46078.49
8972.0 46018.065
8974.0 45950.9275
8976.0 45877.685
8978.0 45797.7275
8980.0 45719.6025
8982.0 45645.14
8984.0 45563.9625
8986.0 45479.7325
8988.0 45403.44
8990.0 45340.575
8992.0 45304.565
8994.0 45300.2925
8996.0 45325.9275
8998.0 45377.1975
9000.0 45460.205
9002.0 45582.8875
9004.0 45729.3725
9006.0 45880.74
9008.0 46031.4975
9010.0 46179.2025
9012.0 46301.2725
9014.0 46381.8375
9016.0 46416.6275
9018.0 46410.525
9020.0 46348.27
9022.0 46224.3675
9024.0 46062.625
9026.0 45883.18
9028.0 45692.14
9030.0 45491.3325
9032.0 45290.525
9034.0 45108.03
9036.0 44957.275
9038.0 44839.4775
9040.0 44750.975
9042.0 44694.2125
9044.0 44651.49
9046.0 44607.5425
9048.0 44581.2975
9050.0 44591.675
9052.0 44635.62
9054.0 44694.8225
9056.0 44772.9475
9058.0 44871.825
9060.0 44979.8575
9062.0 45099.485
9064.0 45244.1375
9066.0 45410.155
9068.0 45570.6775
9070.0 45708.005
9072.0 45813.595
9074.0 45886.2275
9076.0 45922.2375
9078.0 45924.0675
9080.0 45889.8875
9082.0 45805.0475
9084.0 45673.21
9086.0 45506.585
9088.0 45321.0375
9090.0 45134.88
9092.0 44962.1525
9094.0 44815.0575
9096.0 44703.3625
9098.0 44627.0675
9100.0 44591.055
9102.0 44610.5875
9104.0 44683.22
9106.0 44805.9025
9108.0 44976.8025
9110.0 45184.9325
9112.0 45406.49
9114.0 45610.9575
9116.0 45780.635
9118.0 45915.5225
9120.0 46018.0625
9122.0 46079.7075
9124.0 46098.0175
9126.0 46068.1125
9128.0 45982.6625
9130.0 45844.7225
9132.0 45675.045
9134.0 45511.4725
9136.0 45369.26
9138.0 45252.6825
9140.0 45153.195
9142.0 45062.2525
9144.0 44973.7525
9146.0 44892.575
9148.0 44836.4225
9150.0 44810.7875
9152.0 44804.075
9154.0 44803.465
9156.0 44820.555
9158.0 44871.215
9160.0 44961.5475
9162.0 45103.15
9164.0 45299.075
9166.0 45542.605
9168.0 45817.8725
9170.0 46107.79
9172.0 46393.4325
9174.0 46650.3925
9176.0 46853.64
9178.0 46989.75
9180.0 47056.89
9182.0 47042.2425
9184.0 46934.21
9186.0 46729.13
9188.0 46437.38
9190.0 46095.585
9192.0 45752.5675
9194.0 45454.7175
9196.0 45228.8875
9198.0 45084.845
9200.0 45028.6925
9202.0 45075.08
9204.0 45224.615
9206.0 45487.065
9208.0 45845.9525
9210.0 46253.6675
9212.0 46665.655
9214.0 47047.125
9216.0 47377.325
9218.0 47637.335
9220.0 47814.3375
9222.0 47899.7875
9224.0 47891.8525
9226.0 47794.805
9228.0 47630.01
9230.0 47423.1025
9232.0 47192.39
9234.0 46948.25
9236.0 46699.8375
9238.0 46464.8525
9240.0 46257.9425
9242.0 46083.3825
9244.0 45941.17
9246.0 45833.1375
9248.0 45755.6225
9250.0 45704.9625
9252.0 45696.4175
9254.0 45739.1425
9256.0 45836.7975
9258.0 45981.45
9260.0 46155.4
9262.0 46348.27
9264.0 46563.725
9266.0 46804.205
9268.0 47062.385
9270.0 47313.85
9272.0 47533.5775
9274.0 47704.475
9276.0 47821.6625
9278.0 47879.645
9280.0 47879.645
9282.0 47821.6625
9284.0 47714.24
9286.0 47553.1075
9288.0 47351.69
9290.0 47146.0025
9292.0 46959.235
9294.0 46804.815
9296.0 46688.2375
9298.0 46621.71
9300.0 46612.5525
9302.0 46671.145
9304.0 46807.2525
9306.0 47012.3325
9308.0 47260.135
9310.0 47534.1825
9312.0 47825.93
9314.0 48126.2225
9316.0 48417.36
9318.0 48673.7075
9320.0 48874.5125
9322.0 49003.295
9324.0 49057.005
9326.0 49040.525
9328.0 48966.0625
9330.0 48845.8225
9332.0 48684.69
9334.0 48498.5325
9336.0 48307.4925
9338.0 48126.8275
9340.0 47976.07
9342.0 47866.8175
9344.0 47803.95
9346.0 47786.25
9348.0 47813.715
9350.0 47878.41
9352.0 47966.3
9354.0 48068.84
9356.0 48176.8725
9358.0 48286.1275
9360.0 48391.1075
9362.0 48488.1525
9364.0 48574.2125
9366.0 48648.675
9368.0 48704.8275
9370.0 48736.565
9372.0 48742.6675
9374.0 48728.02
9376.0 48695.6725
9378.0 48638.3
9380.0 48563.2275
9382.0 48471.065
9384.0 48353.8775
9386.0 48218.99
9388.0 48083.4925
9390.0 47959.59
9392.0 47852.1675
9394.0 47761.835
9396.0 47687.3725
9398.0 47636.1025
9400.0 47617.1825
9402.0 47642.2075
9404.0 47713.0075
9406.0 47816.1575
9408.0 47935.1775
9410.0 48056.0275
9412.0 48173.215
9414.0 48278.805
9416.0 48364.865
9418.0 48425.9
9420.0 48455.1975
9422.0 48451.535
9424.0 48407.59
9426.0 48333.125
9428.0 48234.2475
9430.0 48120.1125
9432.0 47998.6525
9434.0 47872.92
9436.0 47752.07
9438.0 47646.4775
9440.0 47553.705
9442.0 47470.6975
9444.0 47399.2875
9446.0 47342.525
9448.0 47305.905
9450.0 47293.6975
9452.0 47312.01
9454.0 47354.735
9456.0 47417.6
9458.0 47503.0475
9460.0 47604.9775
9462.0 47718.5025
9464.0 47836.9125
9466.0 47953.49
9468.0 48049.925
9470.0 48109.13
9472.0 48124.39
9474.0 48096.315
9476.0 48027.345
9478.0 47921.145
9480.0 47787.4775
9482.0 47629.3975
9484.0 47451.7875
9486.0 47265.02
9488.0 47083.135
9490.0 46922.0025
9492.0 46792.61
9494.0 46701.6675
9496.0 46653.45
9498.0 46646.7375
9500.0 46674.2025
9502.0 46728.525
9504.0 46810.3125
9506.0 46911.6325
9508.0 47024.5475
9510.0 47132.58
9512.0 47225.355
9514.0 47293.715
9516.0 47328.505
9518.0 47324.8425
9520.0 47295.545
9522.0 47250.99
9524.0 47185.0725
9526.0 47093.52
9528.0 46976.3325
9530.0 46842.055
9532.0 46696.79
9534.0 46544.8125
9536.0 46392.225
9538.0 46248.1825
9540.0 46119.3975
9542.0 46005.8725
9544.0 45918.5925
9546.0 45861.2175
9548.0 45841.6875
9550.0 45859.9975
9552.0 45916.76
9554.0 46006.48
9556.0 46122.4475
9558.0 46250.62
9560.0 46376.3525
9562.0 46494.76
9564.0 46600.96
9566.0 46691.9025
9568.0 46760.2625
9570.0 46796.2725
9572.0 46795.05
9574.0 46754.1575
9576.0 46674.2025
9578.0 46563.7275
9580.0 46433.1125
9582.0 46289.6775
9584.0 46138.92
9586.0 45986.9425
9588.0 45838.6275
9590.0 45706.1825
9592.0 45596.9275
9594.0 45516.36
9596.0 45468.1425
9598.0 45449.8325
9600.0 45454.715
9602.0 45476.6875
9604.0 45518.19
9606.0 45581.055
9608.0 45662.84
9610.0 45755.0025
9612.0 45848.3875
9614.0 45936.2775
9616.0 46014.4025
9618.0 46074.2175
9620.0 46105.345
9622.0 46105.955
9624.0 46071.775
9626.0 46005.8575
9628.0 45911.8625
9630.0 45795.895
9632.0 45661.6175
9634.0 45515.1325
9636.0 45365.595
9638.0 45228.8775
9640.0 45116.5725
9642.0 45030.5125
9644.0 44967.6475
9646.0 44920.04
9648.0 44890.7425
9650.0 44884.03
9652.0 44904.7825
9654.0 44952.39
9656.0 45021.97
9658.0 45100.7075
9660.0 45180.0525
9662.0 45256.3475
9664.0 45327.15
9666.0 45388.795
9668.0 45442.5075
9670.0 45482.79
9672.0 45501.1025
9674.0 45492.5575
9676.0 45457.7675
9678.0 45401.615
9680.0 45333.255
9682.0 45256.35
9684.0 45171.5125
9686.0 45075.0775
9688.0 44973.15
9690.0 44876.105
9692.0 44790.655
9694.0 44724.7375
9696.0 44680.7925
9698.0 44660.04
9700.0 44667.975
9702.0 44704.5975
9704.0 44765.6325
9706.0 44840.705
9708.0 44920.05
9710.0 44991.4625
9712.0 45051.2775
9714.0 45098.885
9716.0 45131.845
9718.0 45143.4425
9720.0 45132.4575
9722.0 45103.16
9724.0 45062.265
9726.0 45026.865
9728.0 44998.7875
9730.0 44976.2025
9732.0 44949.3475
9734.0 44913.335
9736.0 44873.05
9738.0 44841.92
9740.0 44823.0
9742.0 44801.6375
9744.0 44767.4575
9746.0 44719.24
9748.0 44663.0875
9750.0 44608.765
9752.0 44564.8175
9754.0 44535.52
9756.0 44520.26
9758.0 44516.5975
9760.0 44519.65
9762.0 44533.6875
9764.0 44561.7625
9766.0 44606.93
9768.0 44660.64
9770.0 44711.91
9772.0 44750.3625
9774.0 44768.0625
9776.0 44760.1275
9778.0 44725.3375
9780.0 44662.4725
9782.0 44573.36
9784.0 44468.38
9786.0 44354.855
9788.0 44239.5
9790.0 44135.74
9792.0 44051.51
9794.0 43993.5275
9796.0 43969.1125
9798.0 43978.8775
9800.0 44013.0575
9802.0 44064.3275
9804.0 44120.48
9806.0 44172.97
9808.0 44220.5775
9810.0 44259.03
9812.0 44286.495
9814.0 44306.6375
9816.0 44313.3525
9818.0 44298.095
9820.0 44262.695
9822.0 44224.2425
9824.0 44194.945
9826.0 44171.7525
9828.0 44152.83
9830.0 44138.1825
9832.0 44126.5875
9834.0 44116.2125
9836.0 44105.2275
9838.0 44093.0225
9840.0 44077.1525
9842.0 44052.74
9844.0 44025.275
9846.0 43994.145
9848.0 43956.915
9850.0 43912.3575
9852.0 43869.0225
9854.0 43838.505
9856.0 43830.57
9858.0 43845.83
9860.0 43879.3975
9862.0 43916.02
9864.0 43946.5375
9866.0 43977.055
9868.0 44014.285
9870.0 44051.5175
9872.0 44074.1
9874.0 44066.775
9876.0 44022.22
9878.0 43948.3675
9880.0 43865.36
9882.0 43787.235
9884.0 43721.9275
9886.0 43660.2825
9888.0 43594.975
9890.0 43532.72
9892.0 43486.945
9894.0 43464.3625
9896.0 43468.635
9898.0 43492.4375
9900.0 43524.175
9902.0 43552.2525
9904.0 43576.6675
9906.0 43602.3
9908.0 43622.4425
9910.0 43626.105
9912.0 43611.455
9914.0 43583.3775
9916.0 43547.365
9918.0 43507.69
9920.0 43460.6925
9922.0 43406.37
9924.0 43345.945
9926.0 43287.3525
9928.0 43244.6275
9930.0 43224.4875
9932.0 43220.825
9934.0 43214.11
9936.0 43192.1375
9938.0 43156.7375
9940.0 43124.39
9942.0 43120.1175
9944.0 43140.8675
9946.0 43168.945
9948.0 43187.255
9950.0 43194.5775
9952.0 43201.2925
9954.0 43222.655
9956.0 43263.5475
9958.0 43316.0375
9960.0 43360.5925
9962.0 43377.6825
9964.0 43358.7625
9966.0 43314.2075
9968.0 43259.2775
9970.0 43200.6825
9972.0 43138.425
9974.0 43067.0125
9976.0 42983.395
9978.0 42896.115
9980.0 42813.7175
9982.0 42751.46
9984.0 42717.28
9986.0 42716.06
9988.0 42745.9675
9990.0 42799.6775
9992.0 42861.325
9994.0 42920.53
9996.0 42979.125
9998.0 43041.9925
10000.0 43109.7425
10002.0 43165.895
10004.0 43196.4125
10006.0 43200.685
10008.0 43178.7125
10010.0 43135.9875
10012.0 43079.835
10014.0 43026.735
10016.0 42981.57
10018.0 42941.285
10020.0 42899.78
10022.0 42852.7825
10024.0 42806.3975
10026.0 42768.555
10028.0 42745.3625
10030.0 42736.8175
10032.0 42746.5825
10034.0 42766.115
10036.0 42787.4775
10038.0 42803.345
10040.0 42815.5525
10042.0 42830.8125
10044.0 42856.4475
10046.0 42896.12
10048.0 42944.3375
10050.0 42991.335
10052.0 43023.685
10054.0 43038.945
10056.0 43043.2175
10058.0 43040.7775
10060.0 43035.285
10062.0 43021.8575
10064.0 42989.5075
10066.0 42929.6925
10068.0 42843.6325
10070.0 42746.5875
10072.0 42661.1375
10074.0 42603.765
10076.0 42573.2475
10078.0 42558.6
10080.0 42560.4325
10082.0 42587.8975
10084.0 42648.3225
10086.0 42731.33
10088.0 42825.325
10090.0 42916.2675
10092.0 42995.6125
10094.0 43057.8675
10096.0 43103.0325
10098.0 43129.2775
10100.0 43132.33
10102.0 43108.525
10104.0 43059.6975
10106.0 42995.61
10108.0 42927.25
10110.0 42860.1125
10112.0 42788.0925
10114.0 42713.02
10116.0 42637.3375
10118.0 42569.59
10120.0 42514.6575
10122.0 42474.3725
10124.0 42449.9575
10126.0 42441.4125
10128.0 42448.735
10130.0 42468.8775
10132.0 42504.8875
10134.0 42551.885
10136.0 42609.8675
10138.0 42675.175
10140.0 42744.755
10142.0 42816.7775
10144.0 42885.1375
10146.0 42942.5125
10148.0 42984.0175
10150.0 43009.0425
10152.0 43015.145
10154.0 42997.445
10156.0 42951.0575
10158.0 42877.205
10160.0 42775.275
10162.0 42655.0375
10164.0 42525.0325
10166.0 42397.47
10168.0 42280.2825
10170.0 42181.405
10172.0 42102.67
10174.0 42044.6875
10176.0 42008.0675
10178.0 42001.355
10180.0 42034.315
10182.0 42108.1675
10184.0 42215.5875
10186.0 42349.255
10188.0 42498.1825
10190.0 42655.6525
10192.0 42822.8875
10194.0 42989.5125
10196.0 43143.93
10198.0 43273.325
10200.0 43359.385
10202.0 43398.4475
10204.0 43397.2275
10206.0 43347.1775
10208.0 43245.86
10210.0 43104.2575
10212.0 42929.6975
10214.0 42743.54
10216.0 42559.2125
10218.0 42387.7025
10220.0 42236.945
10222.0 42114.265
10224.0 42030.6475
10226.0 42000.74
10228.0 42033.6975
10230.0 42124.64
10232.0 42261.36
10234.0 42429.8175
10236.0 42619.6375
10238.0 42824.715
10240.0 43032.235
10242.0 43227.5475
10244.0 43393.5625
10246.0 43516.8525
10248.0 43593.145
10250.0 43618.78
10252.0 43596.8075
10254.0 43532.72
10256.0 43434.4525
10258.0 43300.785
10260.0 43139.65
10262.0 42958.3775
10264.0 42768.56
10266.0 42577.52
10268.0 42391.3625
10270.0 42221.685
10272.0 42074.59
10274.0 41961.675
10276.0 41889.045
10278.0 41860.9675
10280.0 41891.485
10282.0 41978.155
10284.0 42098.3925
10286.0 42246.7075
10288.0 42423.1
10290.0 42618.4125
10292.0 42819.8275
10294.0 43013.9175
10296.0 43187.87
10298.0 43333.135
10300.0 43446.05
10302.0 43519.2925
10304.0 43552.25
10306.0 43540.6525
10308.0 43478.3975
10310.0 43367.3125
10312.0 43228.1525
10314.0 43071.29
10316.0 42900.39
10318.0 42728.88
10320.0 42572.02
10322.0 42432.86
10324.0 42323.6075
10326.0 42252.1975
10328.0 42224.7325
10330.0 42249.7575
10332.0 42319.9475
10334.0 42424.9275
10336.0 42556.1525
10338.0 42709.96
10340.0 42872.315
10342.0 43032.8375
10344.0 43187.255
10346.0 43328.8575
10348.0 43447.875
10350.0 43527.22
10352.0 43560.18
10354.0 43547.9725
10356.0 43504.0275
10358.0 43432.0075
10360.0 43331.91
10362.0 43204.9575
10364.0 43060.915
10366.0 42905.8875
10368.0 42749.0275
10370.0 42602.545
10372.0 42487.8
10374.0 42404.1825
10376.0 42345.5875
10378.0 42310.7975
10380.0 42298.5925
10382.0 42316.9025
10384.0 42375.4975
10386.0 42467.66
10388.0 42591.56
10390.0 42739.265
10392.0 42891.8525
10394.0 43052.9875
10396.0 43223.2775
10398.0 43378.3075
10400.0 43500.9875
10402.0 43593.76
10404.0 43659.6775
10406.0 43698.74
10408.0 43700.57
10410.0 43652.9625
10412.0 43562.63
10414.0 43441.78
10416.0 43304.4525
10418.0 43158.58
10420.0 43021.86
10422.0 42902.84
10424.0 42794.8075
10426.0 42701.4225
10428.0 42633.0625
10430.0 42598.8825
10432.0 42590.9475
10434.0 42598.2725
10436.0 42609.2575
10438.0 42628.1775
10440.0 42662.3575
10442.0 42716.0675
10444.0 42786.2575
10446.0 42870.485
10448.0 42968.14
10450.0 43081.055
10452.0 43216.5525
10454.0 43376.465
10456.0 43546.7525
10458.0 43702.3925
10460.0 43825.6825
10462.0 43905.0275
10464.0 43934.325
10466.0 43914.795
10468.0 43843.385
10470.0 43720.705
10472.0 43541.2625
10474.0 43302.0025
10476.0 43021.24
10478.0 42734.985
10480.0 42474.365
10482.0 42251.5875
10484.0 42070.3125
10486.0 41939.085
10488.0 41878.66
10490.0 41899.4125
10492.0 42001.3425
10494.0 42172.8525
10496.0 42397.4625
10498.0 42661.135
10500.0 42935.795
10502.0 43201.2975
10504.0 43442.9975
10506.0 43640.1425
10508.0 43778.0825
10510.0 43856.2075
10512.0 43883.0625
10514.0 43868.4125
10516.0 43814.7025
10518.0 43718.8775
10520.0 43579.7175
10522.0 43405.7675
10524.0 43217.78
10526.0 43030.4025
10528.0 42841.805
10530.0 42648.9325
10532.0 42441.4125
10534.0 42227.18
10536.0 42028.8175
10538.0 41867.6825
10540.0 41759.04
10542.0 41713.2625
10544.0 41723.0275
10546.0 41788.335
10548.0 41905.5225
10550.0 42065.435
10552.0 42265.02
10554.0 42494.5125
10556.0 42738.0425
10558.0 42971.8075
10560.0 43175.055
10562.0 43331.915
10564.0 43430.7925
10566.0 43459.48
10568.0 43413.095
10570.0 43298.3475
10572.0 43131.11
10574.0 42924.2
10576.0 42683.11
10578.0 42423.1
10580.0 42163.09
10582.0 41918.34
10584.0 41708.38
10586.0 41549.6875
10588.0 41445.3175
10590.0 41392.2175
10592.0 41386.115
10594.0 41423.3475
10596.0 41501.4725
10598.0 41614.3875
10600.0 41755.3775
10602.0 41915.9
10604.0 42085.5775
10606.0 42260.1375
10608.0 42429.815
10610.0 42583.625
10612.0 42714.24
10614.0 42811.285
10616.0 42866.825
10618.0 42875.9825
10620.0 42835.7
10622.0 42736.825
10624.0 42580.575
10626.0 42370.0025
10628.0 42125.8625
10630.0 41864.63
10632.0 41604.01
10634.0 41355.5975
10636.0 41128.5475
10638.0 40943.61
10640.0 40812.385
10642.0 40739.7525
10644.0 40729.3775
10646.0 40781.2575
10648.0 40886.8475
10650.0 41035.775
10652.0 41210.9475
10654.0 41400.1575
10656.0 41595.47
10658.0 41776.7425
10660.0 41927.4975
10662.0 42040.4125
10664.0 42111.2125
10666.0 42135.6275
10668.0 42120.98
10670.0 42075.815
10672.0 42005.015
10674.0 41908.58
10676.0 41784.6775
10678.0 41643.075
10680.0 41494.76
10682.0 41342.1725
10684.0 41188.365
10686.0 41035.7775
10688.0 40890.5125
10690.0 40751.35
10692.0 40618.295
10694.0 40501.1075
10696.0 40406.505
10698.0 40346.69
10700.0 40324.7175
10702.0 40347.91
10704.0 40413.2175
10706.0 40518.81
10708.0 40651.865
10710.0 40814.22
10712.0 40995.4925
10714.0 41181.04
10716.0 41353.77
10718.0 41491.71
10720.0 41582.65
10722.0 41625.375
10724.0 41612.5575
10726.0 41540.535
10728.0 41413.5825
10730.0 41240.2425
10732.0 41030.8925
10734.0 40803.23
10736.0 40570.685
10738.0 40350.35
10740.0 40155.0375
10742.0 39995.735
10744.0 39882.21
10746.0 39820.5625
10748.0 39802.8625
10750.0 39819.3425
10752.0 39866.95
10754.0 39940.8025
10756.0 40043.9525
10758.0 40164.1925
10760.0 40288.705
10762.0 40413.2175
10764.0 40527.9625
10766.0 40620.125
10768.0 40686.655
10770.0 40729.99
10772.0 40748.3
10774.0 40733.04
10776.0 40684.82
10778.0 40602.4225
10780.0 40492.5575
10782.0 40350.955
10784.0 40181.8875
10786.0 39990.235
10788.0 39788.82
10790.0 39583.13
10792.0 39384.155
10794.0 39210.205
10796.0 39072.875
10798.0 38980.7125
10800.0 38936.1575
10802.0 38941.65
10804.0 39000.8525
10806.0 39116.21
10808.0 39274.9
10810.0 39461.6675
10812.0 39666.135
10814.0 39870.605
10816.0 40056.7625
10818.0 40213.6225
10820.0 40337.525
10822.0 40419.9225
10824.0 40457.1525
10826.0 40441.895
10828.0 40381.47
10830.0 40283.2025
10832.0 40148.3125
10834.0 39987.18
10836.0 39808.3475
10838.0 39625.2425
10840.0 39451.2925
10842.0 39291.38
10844.0 39151.61
10846.0 39040.5275
10848.0 38966.6725
10850.0 38937.9875
10852.0 38952.635
10854.0 39010.62
10856.0 39106.4475
10858.0 39224.855
10860.0 39354.86
10862.0 39500.735
10864.0 39656.985
10866.0 39813.235
10868.0 39949.3425
10870.0 40052.4925
10872.0 40116.58
10874.0 40136.11
10876.0 40114.1375
10878.0 40054.9325
10880.0 39963.99
10882.0 39843.14
10884.0 39694.825
10886.0 39523.925
10888.0 39340.21
10890.0 39154.6625
10892.0 38975.8275
10894.0 38816.525
10896.0 38687.7425
10898.0 38588.255
10900.0 38511.35
10902.0 38455.81
10904.0 38426.515
10906.0 38430.1775
10908.0 38470.46
10910.0 38543.0925
10912.0 38638.92
10914.0 38742.68
10916.0 38843.3875
10918.0 38939.8225
10920.0 39033.815
10922.0 39121.095
10924.0 39194.3375
10926.0 39245.605
10928.0 39264.5275
10930.0 39246.8275
10932.0 39198.61
10934.0 39125.3675
10936.0 39030.7625
10938.0 38927.6125
10940.0 38818.36
10942.0 38696.29
10944.0 38562.6225
10946.0 38428.3475
10948.0 38309.94
10950.0 38218.3875
10952.0 38157.3525
10954.0 38124.395
10956.0 38119.5125
10958.0 38135.9925
10960.0 38165.29
10962.0 38208.015
10964.0 38265.39
10966.0 38336.8025
10968.0 38420.42
10970.0 38506.48
10972.0 38585.8275
10974.0 38647.4725
10976.0 38688.365
10978.0 38714.0
10980.0 38728.65
10982.0 38737.195
10984.0 38731.7
10986.0 38714.0
10988.0 38681.6525
10990.0 38636.485
10992.0 38580.9425
10994.0 38526.01
10996.0 38477.7925
10998.0 38433.2375
11000.0 38380.7475
11002.0 38319.1025
11004.0 38249.5225
11006.0 38178.1125
11008.0 38108.5325
11010.0 38046.8875
11012.0 37997.45
11014.0 37960.83
11016.0 37932.7525
11018.0 37907.1175
11020.0 37886.365
11022.0 37881.4825
11024.0 37900.4025
11026.0 37939.465
11028.0 37987.0725
11030.0 38035.29
11032.0 38084.1175
11034.0 38132.335
11036.0 38173.8375
11038.0 38209.2375
11040.0 38244.0275
11042.0 38273.935
11044.0 38294.685
11046.0 38300.1775
11048.0 38283.6975
11050.0 38245.855
11052.0 38192.7525
11054.0 38131.1075
11056.0 38063.97
11058.0 37989.5075
11060.0 37907.11
11062.0 37819.2175
11064.0 37728.885
11066.0 37639.1625
11068.0 37554.9325
11070.0 37480.47
11072.0 37426.1475
11074.0 37391.9675
11076.0 37375.4875
11078.0 37377.3175
11080.0 37403.5625
11082.0 37454.8325
11084.0 37529.905
11086.0 37618.405
11088.0 37713.62
11090.0 37813.105
11092.0 37913.2025
11094.0 38009.6375
11096.0 38095.6975
11098.0 38168.94
11100.0 38223.2625
11102.0 38251.3375
11104.0 38255.0
11106.0 38240.35
11108.0 38213.495
11110.0 38170.16
11112.0 38105.4625
11114.0 38023.065
11116.0 37929.6825
11118.0 37828.365
11120.0 37720.9425
11122.0 37612.91
11124.0 37506.1
11126.0 37406.0025
11128.0 37320.555
11130.0 37256.4675
11132.0 37210.0825
11134.0 37183.8375
11136.0 37186.8875
11138.0 37219.845
11140.0 37279.6575
11142.0 37360.835
11144.0 37459.7125
11146.0 37567.135
11148.0 37672.725
11150.0 37772.8225
11152.0 37863.765
11154.0 37943.11
11156.0 38000.4825
11158.0 38024.2875
11160.0 38006.5875
11162.0 37953.485
11164.0 37872.9175
11166.0 37774.0425
11168.0 37661.7375
11170.0 37535.395
11172.0 37397.455
11174.0 37252.19
11176.0 37114.86
11178.0 36997.6725
11180.0 36909.17
11182.0 36853.0175
11184.0 36825.5525
11186.0 36821.28
11188.0 36835.3175
11190.0 36869.4975
11192.0 36923.21
11194.0 36994.62
11196.0 37077.0175
11198.0 37167.35
11200.0 37265.0075
11202.0 37358.3925
11204.0 37442.62
11206.0 37518.915
11208.0 37587.885
11210.0 37645.2575
11212.0 37690.4225
11214.0 37718.4975
11216.0 37716.6675
11218.0 37684.93
11220.0 37624.5075
11222.0 37539.6675
11224.0 37431.635
11226.0 37304.6825
11228.0 37164.9125
11230.0 37015.9875
11232.0 36866.4525
11234.0 36721.8
11236.0 36594.8475
11238.0 36500.8525
11240.0 36451.415
11242.0 36445.9225
11244.0 36488.6475
11246.0 36576.5375
11248.0 36700.4375
11250.0 36845.7025
11252.0 37000.1225
11254.0 37156.3725
11256.0 37303.4675
11258.0 37426.15
11260.0 37515.8725
11262.0 37563.48
11264.0 37562.87
11266.0 37518.925
11268.0 37440.19
11270.0 37338.8725
11272.0 37222.295
11274.0 37093.5125
11276.0 36962.8975
11278.0 36838.385
11280.0 36721.1975
11282.0 36615.605
11284.0 36530.155
11286.0 36463.015
11288.0 36412.355
11290.0 36382.45
11292.0 36373.295
11294.0 36377.5675
11296.0 36390.995
11298.0 36414.1875
11300.0 36456.3
11302.0 36516.725
11304.0 36592.41
11306.0 36674.195
11308.0 36763.3075
11310.0 36857.3025
11312.0 36947.635
11314.0 37030.0325
11316.0 37102.665
11318.0 37157.5975
11320.0 37184.4525
11322.0 37177.1275
11324.0 37126.47
11326.0 37032.475
11328.0 36903.6925
11330.0 36755.9875
11332.0 36602.7875
11334.0 36450.2
11336.0 36308.6
11338.0 36186.5275
11340.0 36092.5325
11342.0 36034.55
11344.0 36019.29
11346.0 36048.5875
11348.0 36115.115
11350.0 36206.6675
11352.0 36310.4275
11354.0 36416.0175
11356.0 36513.0625
11358.0 36599.1225
11360.0 36672.365
11362.0 36732.18
11364.0 36770.6325
11366.0 36785.8925
11368.0 36777.9575
11370.0 36744.3875
11372.0 36693.1175
11374.0 36634.525
11376.0 36579.5925
11378.0 36530.765
11380.0 36481.9375
11382.0 36429.4475
11384.0 36375.735
11386.0 36326.2975
11388.0 36280.52
11390.0 36239.625
11392.0 36203.6125
11394.0 36168.2125
11396.0 36131.59
11398.0 36096.8
11400.0 36067.5025
11402.0 36046.7525
11404.0 36040.6475
11406.0 36056.5175
11408.0 36091.3075
11410.0 36141.965
11412.0 36200.56
11414.0 36264.6475
11416.0 36325.6825
11418.0 36381.835
11420.0 36427.6125
11422.0 36461.1825
11424.0 36480.105
11426.0 36475.8325
11428.0 36446.535
11430.0 36396.485
11432.0 36334.84
11434.0 36269.5325
11436.0 36207.8875
11438.0 36147.4625
11440.0 36089.4775
11442.0 36038.2075
11444.0 35994.8725
11446.0 35960.6925
11448.0 35936.89
11450.0 35927.125
11452.0 35927.125
11454.0 35935.06
11456.0 35946.6575
11458.0 35961.305
11460.0 35978.395
11462.0 35999.1475
11464.0 36026.615
11466.0 36060.185
11468.0 36098.0275
11470.0 36133.4275
11472.0 36160.2825
11474.0 36182.255
11476.0 36196.295
11478.0 36201.7875
11480.0 36199.3475
11482.0 36187.75
11484.0 36160.285
11486.0 36112.0675
11488.0 36048.59
11490.0 35976.57
11492.0 35903.3275
11494.0 35834.9675
11496.0 35776.9825
11498.0 35731.8175
11500.0 35704.9625
11502.0 35697.0275
11504.0 35703.74
11506.0 35726.9325
11508.0 35765.385
11510.0 35814.215
11512.0 35865.485
11514.0 35914.3125
11516.0 35957.0375
11518.0 35988.775
11520.0 36001.5925
11522.0 35996.71
11524.0 35981.4525
11526.0 35961.31
11528.0 35936.285
11530.0 35905.155
11532.0 35870.365
11534.0 35830.69
11536.0 35787.965
11538.0 35747.6825
11540.0 35712.8925
11542.0 35688.4775
11544.0 35675.05
11546.0 35673.8275
11548.0 35690.3075
11550.0 35722.0475
11552.0 35770.2675
11554.0 35831.9125
11556.0 35917.97
11558.0 36023.56
11560.0 36141.9675
11562.0 36263.4275
11564.0 36381.835
11566.0 36494.14
11568.0 36600.9525
11570.0 36685.79
11572.0 36747.435
11574.0 36784.0575
11576.0 36787.72
11578.0 36758.4225
11580.0 36694.945
11582.0 36597.8975
11584.0 36478.88
11586.0 36343.9925
11588.0 36203.6125
11590.0 36072.385
11592.0 35963.13
11594.0 35880.7325
11596.0 35825.19
11598.0 35799.555
11600.0 35810.5425
11602.0 35859.9825
11604.0 35945.43
11606.0 36059.5675
11608.0 36193.845
11610.0 36339.72
11612.0 36480.1025
11614.0 36616.8225
11616.0 36752.93
11618.0 36875.0
11620.0 36968.3825
11622.0 37031.86
11624.0 37059.935
11626.0 37051.39
11628.0 37000.12
11630.0 36911.6175
11632.0 36795.65
11634.0 36666.255
11636.0 36515.5
11638.0 36347.655
11640.0 36176.145
11642.0 36009.52
11644.0 35856.3225
11646.0 35726.9275
11648.0 35623.7775
11650.0 35559.0825
11652.0 35533.4475
11654.0 35543.8225
11656.0 35592.04
11658.0 35678.71
11660.0 35804.4425
11662.0 35969.85
11664.0 36169.435
11666.0 36389.1625
11668.0 36616.8225
11670.0 36837.16
11672.0 37034.305
11674.0 37196.0475
11676.0 37323.0
11678.0 37410.8925
11680.0 37453.6175
11682.0 37451.785
11684.0 37397.465
11686.0 37291.2625
11688.0 37144.7775
11690.0 36968.385
11692.0 36782.8375
11694.0 36591.1875
11696.0 36398.3175
11698.0 36220.705
11700.0 36079.105
11702.0 35966.19
11704.0 35886.845
11706.0 35850.225
11708.0 35857.55
11710.0 35908.82
11712.0 35993.0475
11714.0 36091.925
11716.0 36201.7875
11718.0 36316.5325
11720.0 36427.0075
11722.0 36534.4275
11724.0 36641.24
11726.0 36735.845
11728.0 36810.9175
11730.0 36865.2375
11732.0 36903.69
11734.0 36926.8825
11736.0 36934.2075
11738.0 36918.95
11740.0 36881.1075
11742.0 36825.565
11744.0 36751.1025
11746.0 36657.7175
11748.0 36544.1925
11750.0 36414.7975
11752.0 36276.2475
11754.0 36145.6325
11756.0 36030.8875
11758.0 35934.45
11760.0 35859.985
11762.0 35804.4425
11764.0 35775.145
11766.0 35779.4175
11768.0 35821.5325
11770.0 35900.27
11772.0 36004.64
11774.0 36122.4375
11776.0 36244.5075
11778.0 36364.7475
11780.0 36470.9475
11782.0 36564.3325
11784.0 36631.47
11786.0 36663.8175
11788.0 36663.8175
11790.0 36633.3
11792.0 36575.9275
11794.0 36500.245
11796.0 36408.6925
11798.0 36308.595
11800.0 36201.1725
11802.0 36091.92
11804.0 35986.9375
11806.0 35892.9425
11808.0 35813.5975
11810.0 35745.2375
11812.0 35680.54
11814.0 35623.7775
11816.0 35583.495
11818.0 35562.7425
11820.0 35556.03
11822.0 35557.25
11824.0 35570.0675
11826.0 35598.755
11828.0 35635.3775
11830.0 35676.2725
11832.0 35724.49
11834.0 35775.15
11836.0 35816.0425
11838.0 35850.2225
11840.0 35875.8575
11842.0 35886.235
11844.0 35880.1325
11846.0 35859.38
11848.0 35824.59
11850.0 35778.2025
11852.0 35721.44
11854.0 35661.625
11856.0 35598.76
11858.0 35532.2325
11860.0 35469.9775
11862.0 35421.1475
11864.0 35392.4625
11866.0 35380.2575
11868.0 35380.8675
11870.0 35393.685
11872.0 35420.54
11874.0 35462.6525
11876.0 35518.805
11878.0 35584.7225
11880.0 35659.185
11882.0 35739.1425
11884.0 35817.2675
11886.0 35889.2875
11888.0 35949.1025
11890.0 35996.71
11892.0 36030.28
11894.0 36046.76
11896.0 36043.0975
11898.0 36024.175
11900.0 35988.165
11902.0 35930.7925
11904.0 35851.445
11906.0 35758.67
11908.0 35673.83
11910.0 35603.0275
11912.0 35544.4325
11914.0 35493.7725
11916.0 35451.0475
11918.0 35415.6475
11920.0 35394.8975
11922.0 35398.56
11924.0 35424.805
11926.0 35459.595
11928.0 35487.06
11930.0 35501.7075
11932.0 35510.8625
11934.0 35515.745
11936.0 35515.745
11938.0 35507.2
11940.0 35487.6675
11942.0 35452.8775
11944.0 35404.66
11946.0 35352.17
11948.0 35301.51
11950.0 35250.85
11952.0 35197.14
11954.0 35139.7675
11956.0 35080.5625
11958.0 35021.97
11960.0 34962.7675
11962.0 34900.51
11964.0 34837.035
11966.0 34777.2225
11968.0 34724.1225
11970.0 34683.23
11972.0 34657.595
11974.0 34639.285
11976.0 34624.025
11978.0 34613.65
11980.0 34620.3625
11982.0 34649.0475
11984.0 34697.8775
11986.0 34759.525
11988.0 34824.8325
11990.0 34884.0375
11992.0 34936.53
11994.0 34990.2425
11996.0 35047.6175
11998.0 35101.3275
12000.0 35141.0
12002.0 35156.2575
12004.0 35144.66
12006.0 35119.025
12008.0 35091.56
12010.0 35067.1475
12012.0 35034.1875
12014.0 34990.2425
12016.0 34942.025
12018.0 34898.08
12020.0 34863.29
12022.0 34837.655
12024.0 34821.785
12026.0 34806.525
12028.0 34788.215
12030.0 34772.3475
12032.0 34768.075
12034.0 34775.4
12036.0 34789.4375
12038.0 34805.305
12040.0 34821.7825
12042.0 34840.705
12044.0 34865.1175
12046.0 34897.465
12048.0 34932.255
12050.0 34959.72
12052.0 34976.2
12054.0 34985.965
12056.0 34995.7325
12058.0 35003.0575
12060.0 35001.2275
12062.0 34984.75
12064.0 34945.6875
12066.0 34883.43
12068.0 34802.865
12070.0 34711.3125
12072.0 34609.3825
12074.0 34492.195
12076.0 34365.24
12078.0 34238.2875
12080.0 34119.8775
12082.0 34019.17
12084.0 33941.045
12086.0 33883.0625
12088.0 33843.39
12090.0 33822.0275
12092.0 33829.9625
12094.0 33868.415
12096.0 33927.0075
12098.0 33994.145
12100.0 34062.505
12102.0 34130.255
12104.0 34195.5625
12106.0 34262.7025
12108.0 34326.79
12110.0 34376.2275
12112.0 34400.03
12114.0 34398.8075
12116.0 34375.615
12118.0 34337.775
12120.0 34287.1175
12122.0 34227.9125
12124.0 34163.215
12126.0 34091.195
12128.0 34019.1725
12130.0 33957.5275
12132.0 33911.14
12134.0 33885.505
12136.0 33878.18
12138.0 33884.2825
12140.0 33896.4875
12142.0 33911.135
12144.0 33928.835
12146.0 33952.03
12148.0 33978.885
12150.0 34004.52
12152.0 34022.22
12154.0 34033.815
12156.0 34039.92
12158.0 34044.8025
12160.0 34047.245
12162.0 34052.1275
12164.0 34064.945
12166.0 34081.425
12168.0 34096.0725
12170.0 34105.8375
12172.0 34109.5
12174.0 34110.11
12176.0 34107.0575
12178.0 34096.07
12180.0 34071.6575
12182.0 34031.985
12184.0 33978.275
12186.0 33912.965
12188.0 33839.1125
12190.0 33764.04
12192.0 33690.1875
12194.0 33615.725
12196.0 33545.535
12198.0 33483.2775
12200.0 33432.6175
12202.0 33392.945
12204.0 33359.9875
12206.0 33333.7425
12208.0 33317.8725
12210.0 33311.1575
12212.0 33311.1575
12214.0 33310.5475
12216.0 33306.275
12218.0 33297.12
12220.0 33286.135
12222.0 33276.98
12224.0 33272.095
12226.0 33263.55
12228.0 33248.29
12230.0 33231.2
12232.0 33222.655
12234.0 33224.4875
12236.0 33228.15
12238.0 33228.76
12240.0 33231.2025
12242.0 33233.035
12244.0 33229.3725
12246.0 33224.49
12248.0 33222.0475
12250.0 33218.995
12252.0 33211.67
12254.0 33197.0225
12256.0 33179.3225
12258.0 33165.285
12260.0 33160.4
12262.0 33165.8925
12264.0 33181.15
12266.0 33204.955
12268.0 33235.4725
12270.0 33269.04
12272.0 33302.61
12274.0 33336.79
12276.0 33375.2425
12278.0 33418.5775
12280.0 33463.7425
12282.0 33500.3625
12284.0 33518.6725
12286.0 33518.6725
12288.0 33501.5825
12290.0 33468.625
12292.0 33419.7975
12294.0 33357.5425
12296.0 33285.52
12298.0 33209.2275
12300.0 33129.27
12302.0 33054.1975
12304.0 32987.06
12306.0 32936.4
12308.0 32901.0
12310.0 32880.2475
12312.0 32874.145
12314.0 32880.2475
12316.0 32899.7775
12318.0 32925.4125
12320.0 32950.435
12322.0 32973.0175
12324.0 32991.3275
12326.0 32998.65
12328.0 32991.3275
12330.0 32971.7975
12332.0 32937.6175
12334.0 32890.01
12336.0 32832.0275
12338.0 32768.5525
12340.0 32700.195
12342.0 32625.1225
12344.0 32545.7775
12346.0 32463.99
12348.0 32384.0325
12350.0 32315.065
12352.0 32262.575
12354.0 32225.955
12356.0 32199.71
12358.0 32179.57
12360.0 32169.195
12362.0 32178.9625
12364.0 32213.7525
12366.0 32266.2425
12368.0 32326.6675
12370.0 32390.1425
12372.0 32456.06
12374.0 32523.1975
12376.0 32583.0125
12378.0 32629.3975
12380.0 32658.695
12382.0 32662.355
12384.0 32638.5525
12386.0 32589.725
12388.0 32523.8075
12390.0 32444.4625
12392.0 32352.3
12394.0 32248.54
12396.0 32142.95
12398.0 32054.45
12400.0 31989.1425
12402.0 31942.755
12404.0 31914.68
12406.0 31903.695
12408.0 31912.24
12410.0 31939.705
12412.0 31985.4825
12414.0 32041.635
12416.0 32100.84
12418.0 32154.55
12420.0 32195.4425
12422.0 32221.0775
12424.0 32235.725
12426.0 32243.66
12428.0 32242.44
12430.0 32224.7375
12432.0 32192.3875
12434.0 32150.2725
12436.0 32100.8325
12438.0 32046.51
12440.0 31984.865
12442.0 31911.0125
12444.0 31826.175
12446.0 31735.8425
12448.0 31651.005
12450.0 31571.05
12452.0 31497.1975
12454.0 31433.11
12456.0 31387.945
12458.0 31368.415
12460.0 31379.4025
12462.0 31423.35
12464.0 31495.98
12466.0 31590.585
12468.0 31690.6825
12470.0 31789.56
12472.0 31882.3325
12474.0 31969.0025
12476.0 32039.1925
12478.0 32072.7625
12480.0 32061.7775
12482.0 32011.73
12484.0 31927.5025
12486.0 31820.08
12488.0 31693.125
12490.0 31556.4075
12492.0 31416.6375
12494.0 31282.36
12496.0 31160.9
12498.0 31063.245
12500.0 30998.5475
12502.0 30971.6925
12504.0 30975.355
12506.0 31000.99
12508.0 31046.7675
12510.0 31113.2975
12512.0 31194.475
12514.0 31282.975
12516.0 31370.8675
12518.0 31452.045
12520.0 31527.1175
12522.0 31596.6975
12524.0 31657.7325
12526.0 31707.17
12528.0 31736.4675
12530.0 31741.96
12532.0 31724.26
12534.0 31687.03
12536.0 31632.0975
12538.0 31557.635
12540.0 31467.3025
12542.0 31360.49
12544.0 31241.4725
12546.0 31115.1275
12548.0 31000.9925
12550.0 30904.555
12552.0 30827.65
12554.0 30770.2775
12556.0 30734.8775
12558.0 30725.7225
12560.0 30745.8625
12562.0 30793.47
12564.0 30862.4375
12566.0 30947.8875
12568.0 31044.325
12570.0 31143.2
12572.0 31239.635
12574.0 31327.525
12576.0 31400.765
12578.0 31450.8125
12580.0 31474.005
12582.0 31469.7325
12584.0 31444.7075
12586.0 31400.1525
12588.0 31336.065
12590.0 31253.0575
12592.0 31156.0125
12594.0 31051.0325
12596.0 30945.44
12598.0 30849.615
12600.0 30765.9975
12602.0 30693.975
12604.0 30636.6
12606.0 30597.5375
12608.0 30576.785
12610.0 30580.4475
12612.0 30605.4725
12614.0 30644.535
12616.0 30691.5325
12618.0 30745.2425
12620.0 30797.1225
12622.0 30845.34
12624.0 30891.7275
12626.0 30935.675
12628.0 30973.515
12630.0 31001.5925
12632.0 31016.8525
12634.0 31017.4625
12636.0 31006.475
12638.0 30989.995
12640.0 30971.075
12642.0 30947.27
12644.0 30918.585
12646.0 30879.5225
12648.0 30834.965
12650.0 30786.1375
12652.0 30733.6475
12654.0 30679.9375
12656.0 30626.8375
12658.0 30579.23
12660.0 30542.0
12662.0 30517.585
12664.0 30507.82
12666.0 30510.26
12668.0 30523.6875
12670.0 30546.27
12672.0 30577.3975
12674.0 30617.07
12676.0 30664.6775
12678.0 30713.505
12680.0 30758.06
12682.0 30794.07
12684.0 30819.705
12686.0 30836.185
12688.0 30848.3925
12690.0 30858.1575
12692.0 30866.0925
12694.0 30866.7025
12696.0 30856.9375
12698.0 30835.575
12700.0 30811.16
12702.0 30787.3575
12704.0 30761.11
12706.0 30728.15
12708.0 30684.205
12710.0 30628.6625
12712.0 30570.6775
12714.0 30515.135
12716.0 30463.865
12718.0 30420.53
12720.0 30382.0775
12722.0 30350.34
12724.0 30330.1975
12726.0 30328.365
12728.0 30341.1825
12730.0 30363.765
12732.0 30396.725
12734.0 30435.175
12736.0 30477.9
12738.0 30521.845
12740.0 30564.57
12742.0 30598.14
12744.0 30613.4
12746.0 30610.96
12748.0 30595.09
12750.0 30572.5075
12752.0 30546.2625
12754.0 30514.525
12756.0 30474.8525
12758.0 30426.025
12760.0 30371.705
12762.0 30319.825
12764.0 30275.88
12766.0 30242.31
12768.0 30216.675
12770.0 30189.21
12772.0 30155.64
12774.0 30120.85
12776.0 30092.7725
12778.0 30076.2925
12780.0 30066.5275
12782.0 30061.6425
12784.0 30061.6425
12786.0 30069.5775
12788.0 30087.2775
12790.0 30117.185
12792.0 30154.4175
12794.0 30194.7025
12796.0 30233.155
12798.0 30263.0625
12800.0 30284.425
12802.0 30297.2425
12804.0 30296.0225
12806.0 30278.3225
12808.0 30246.585
12810.0 30204.4725
12812.0 30151.98
12814.0 30095.2175
12816.0 30039.675
12818.0 29984.745
12820.0 29929.8125
12822.0 29880.3725
12824.0 29840.0875
12826.0 29815.6725
12828.0 29804.6875
12830.0 29804.6875
12832.0 29808.96
12834.0 29815.0625
12836.0 29823.6075
12838.0 29835.815
12840.0 29854.735
12842.0 29874.8775
12844.0 29889.5275
12846.0 29889.5275
12848.0 29876.71
12850.0 29860.23
12852.0 29844.97
12854.0 29835.815
12856.0 29827.27
12858.0 29812.0125
12860.0 29786.9875
12862.0 29754.64
12864.0 29719.85
12866.0 29690.5525
12868.0 29670.4125
12870.0 29654.5425
12872.0 29641.725
12874.0 29629.5175
12876.0 29619.7525
12878.0 29616.09
12880.0 29620.9725
12882.0 29634.4
12884.0 29658.2025
12886.0 29689.33
12888.0 29723.51
12890.0 29761.35
12892.0 29804.685
12894.0 29850.4625
12896.0 29892.5775
12898.0 29927.9775
12900.0 29953.6125
12902.0 29970.0925
12904.0 29985.3525
12906.0 29997.56
12908.0 30003.0525
12910.0 29996.9475
12912.0 29979.2475
12914.0 29955.445
12916.0 29930.42
12918.0 29912.1075
12920.0 29896.2375
12922.0 29882.2
12924.0 29869.9925
12926.0 29857.175
12928.0 29840.695
12930.0 29823.605
12932.0 29805.295
12934.0 29779.66
12936.0 29752.195
12938.0 29725.95
12940.0 29708.25
12942.0 29696.6525
12944.0 29689.33
12946.0 29680.175
12948.0 29666.135
12950.0 29653.3175
12952.0 29642.33
12954.0 29639.8875
12956.0 29646.6025
12958.0 29653.315
12960.0 29655.1475
12962.0 29648.4325
12964.0 29633.175
12966.0 29612.425
12968.0 29590.4525
12970.0 29563.5975
12972.0 29530.03
12974.0 29494.63
12976.0 29460.45
12978.0 29430.5425
12980.0 29404.2975
12982.0 29381.105
12984.0 29356.69
12986.0 29331.665
12988.0 29310.9125
12990.0 29295.655
12992.0 29289.55
12994.0 29284.6675
12996.0 29274.9025
12998.0 29250.49
13000.0 29216.9225
13002.0 29178.47
13004.0 29139.4075
13006.0 29105.2275
13008.0 29080.8125
13010.0 29064.335
13012.0 29058.2325
13014.0 29064.945
13016.0 29079.5925
13018.0 29105.2275
13020.0 29141.85
13022.0 29193.73
13024.0 29259.0375
13026.0 29334.72
13028.0 29411.015
13030.0 29480.595
13032.0 29541.63
13034.0 29590.46
13036.0 29624.0275
13038.0 29646.6125
13040.0 29655.7675
13042.0 29649.665
13044.0 29627.0825
13046.0 29589.85
13048.0 29539.8
13050.0 29483.0375
13052.0 29422.0025
13054.0 29355.4725
13056.0 29284.0625
13058.0 29213.8725
13060.0 29152.8375
13062.0 29104.62
13064.0 29068.0
13066.0 29039.3125
13068.0 29019.17
13070.0 29010.625
13072.0 29012.4575
13074.0 29030.1575
13076.0 29063.1175
13078.0 29110.1125
13080.0 29161.99
13082.0 29210.8175
13084.0 29256.5925
13086.0 29303.59
13088.0 29347.535
13090.0 29383.545
13092.0 29405.5175
13094.0 29410.4025
13096.0 29403.08
13098.0 29382.9375
13100.0 29348.7575
13102.0 29299.32
13104.0 29232.18
13106.0 29149.7825
13108.0 29060.6725
13110.0 28974.615
13112.0 28894.05
13114.0 28817.755
13116.0 28748.785
13118.0 28690.19
13120.0 28647.465
13122.0 28623.66
13124.0 28621.2175
13126.0 28638.3075
13128.0 28669.435
13130.0 28709.1075
13132.0 28754.2725
13134.0 28804.9325
13136.0 28861.085
13138.0 28917.8475
13140.0 28967.895
13142.0 29008.7875
13144.0 29040.525
13146.0 29060.6675
13148.0 29069.825
13150.0 29067.9925
13152.0 29055.785
13154.0 29030.76
13156.0 28996.58
13158.0 28959.35
13160.0 28925.7825
13162.0 28898.3175
13164.0 28872.6825
13166.0 28843.9975
13168.0 28810.43
13170.0 28775.03
13172.0 28742.68
13174.0 28718.265
13176.0 28697.5125
13178.0 28677.37
13180.0 28653.565
13182.0 28623.6575
13184.0 28591.92
13186.0 28562.0125
13188.0 28538.2075
13190.0 28518.675
13192.0 28504.6375
13194.0 28496.0925
13196.0 28493.0425
13198.0 28496.705
13200.0 28507.69
13202.0 28526.6125
13204.0 28553.4675
13206.0 28583.985
13208.0 28616.335
13210.0 28648.0725
13212.0 28677.37
13214.0 28700.5625
13216.0 28713.99
13218.0 28715.82
13220.0 28707.275
13222.0 28688.355
13224.0 28659.6675
13226.0 28624.8775
13228.0 28584.5925
13230.0 28541.8675
13232.0 28498.5325
13234.0 28460.08
13236.0 28427.73
13238.0 28397.2125
13240.0 28368.525
13242.0 28347.1625
13244.0 28340.45
13246.0 28350.215
13248.0 28373.4075
13250.0 28400.8725
13252.0 28425.8975
13254.0 28447.87
13256.0 28470.4525
13258.0 28497.3075
13260.0 28527.825
13262.0 28558.3425
13264.0 28585.1975
13266.0 28607.1725
13268.0 28624.8725
13270.0 28639.52
13272.0 28651.7275
13274.0 28664.545
13276.0 28673.7
13278.0 28676.14
13280.0 28670.6475
13282.0 28655.9975
13284.0 28626.7025
13286.0 28582.7575
13288.0 28529.0475
13290.0 28469.235
13292.0 28410.64
13294.0 28358.15
13296.0 28314.815
13298.0 28276.9725
13300.0 28240.9625
13302.0 28211.055
13304.0 28190.915
13306.0 28182.37
13308.0 28184.8125
13310.0 28195.8
13312.0 28213.5
13314.0 28234.8625
13316.0 28257.4475
13318.0 28285.5225
13320.0 28316.65
13322.0 28345.9475
13324.0 28367.31
13326.0 28378.295
13328.0 28383.7875
13330.0 28389.28
13332.0 28397.215
13334.0 28403.3175
13336.0 28400.265
13338.0 28383.7875
13340.0 28359.985
13342.0 28334.35
13344.0 28309.9375
13346.0 28284.9125
13348.0 28250.1225
13350.0 28206.1775
13352.0 28153.685
13354.0 28093.87
13356.0 28035.885
13358.0 27982.175
13360.0 27933.9575
13362.0 27895.505
13364.0 27874.1425
13366.0 27872.9225
13368.0 27889.4
13370.0 27924.19
13372.0 27967.525
13374.0 28013.3025
13376.0 28057.8575
13378.0 28105.465
13380.0 28157.955
13382.0 28210.445
13384.0 28258.0525
13386.0 28294.0625
13388.0 28314.815
13390.0 28318.4775
13392.0 28308.7125
13394.0 28286.74
13396.0 28254.39
13398.0 28209.225
13400.0 28152.4625
13402.0 28087.155
13404.0 28019.405
13406.0 27952.2675
13408.0 27887.57
13410.0 27828.9775
13412.0 27775.8775
13414.0 27737.4275
13416.0 27717.8975
13418.0 27717.8975
13420.0 27732.545
13422.0 27756.96
13424.0 27786.865
13426.0 27822.875
13428.0 27871.7025
13430.0 27929.075
13432.0 27988.89
13434.0 28045.0425
13436.0 28085.9375
13438.0 28110.9625
13440.0 28123.78
13442.0 28120.73
13444.0 28099.3675
13446.0 28058.4725
13448.0 28002.9325
13450.0 27937.015
13452.0 27865.605
13454.0 27792.3625
13456.0 27720.95
13458.0 27651.98
13460.0 27587.2825
13462.0 27529.2975
13464.0 27479.8575
13466.0 27445.6775
13468.0 27429.8075
13470.0 27431.0275
13472.0 27445.675
13474.0 27469.48
13476.0 27502.44
13478.0 27543.945
13480.0 27592.1625
13482.0 27640.99
13484.0 27683.715
13486.0 27719.725
13488.0 27745.97
13490.0 27764.28
13492.0 27775.265
13494.0 27772.8225
13496.0 27755.1225
13498.0 27725.825
13500.0 27689.815
13502.0 27653.8025
13504.0 27621.455
13506.0 27590.9375
13508.0 27557.98
13510.0 27522.58
13512.0 27489.01
13514.0 27459.7125
13516.0 27438.96
13518.0 27423.09
13520.0 27407.22
13522.0 27391.35
13524.0 27378.5325
13526.0 27373.04
13528.0 27371.2075
13530.0 27367.545
13532.0 27360.22
13534.0 27352.285
13536.0 27348.015
13538.0 27351.0675
13540.0 27361.445
13542.0 27379.7575
13544.0 27404.1725
13546.0 27431.64
13548.0 27460.9375
13550.0 27495.7275
13552.0 27534.79
13554.0 27575.0725
13556.0 27608.64
13558.0 27632.4425
13560.0 27643.43
13562.0 27648.3125
13564.0 27647.0925
13566.0 27636.7175
13568.0 27619.0175
13570.0 27593.3825
13572.0 27564.085
13574.0 27537.84
13576.0 27518.3075
13578.0 27505.49
13580.0 27495.115
13582.0 27485.96
13584.0 27478.025
13586.0 27472.5325
13588.0 27468.87
13590.0 27467.04
13592.0 27463.99
13594.0 27457.8875
13596.0 27449.9525
13598.0 27442.63
13600.0 27435.3075
13602.0 27429.815
13604.0 27423.1
13606.0 27413.335
13608.0 27405.4
13610.0 27399.905
13612.0 27399.905
13614.0 27406.01
13616.0 27416.995
13618.0 27429.2025
13620.0 27444.46
13622.0 27453.615
13624.0 27452.395
13626.0 27438.9675
13628.0 27413.9425
13630.0 27375.49
13632.0 27326.6625
13634.0 27268.68
13636.0 27205.815
13638.0 27144.17
13640.0 27087.4075
13642.0 27033.6975
13644.0 26987.31
13646.0 26954.35
13648.0 26934.82
13650.0 26926.275
13652.0 26925.665
13654.0 26928.7175
13656.0 26935.4325
13658.0 26942.145
13660.0 26946.415
13662.0 26946.415
13664.0 26945.195
13666.0 26945.195
13668.0 26947.635
13670.0 26954.3475
13672.0 26966.555
13674.0 26982.425
13676.0 27000.125
13678.0 27021.485
13680.0 27052.0025
13682.0 27091.065
13684.0 27135.6225
13686.0 27182.0075
13688.0 27225.3425
13690.0 27262.575
13692.0 27292.4825
13694.0 27311.4025
13696.0 27313.845
13698.0 27297.975
13700.0 27263.185
13702.0 27219.24
13704.0 27172.2425
13706.0 27124.025
13708.0 27076.4175
13710.0 27026.98
13712.0 26975.1
13714.0 26926.27
13716.0 26885.9875
13718.0 26855.47
13720.0 26835.3275
13722.0 26827.3925
13724.0 26826.7825
13726.0 26828.005
13728.0 26833.4975
13730.0 26845.705
13732.0 26864.6275
13734.0 26885.3775
13736.0 26903.6875
13738.0 26918.9475
13740.0 26931.155
13742.0 26942.7525
13744.0 26950.0775
13746.0 26950.6875
13748.0 26944.585
13750.0 26928.1075
13752.0 26901.8625
13754.0 26870.1225
13756.0 26837.165
13758.0 26801.155
13760.0 26757.21
13762.0 26702.2775
13764.0 26640.02
13766.0 26576.545
13768.0 26513.68
13770.0 26456.9175
13772.0 26408.09
13774.0 26366.585
13776.0 26334.845
13778.0 26316.535
13780.0 26312.8725
13782.0 26320.8075
13784.0 26336.6775
13786.0 26358.65
13788.0 26384.895
13790.0 26414.8025
13792.0 26447.1525
13794.0 26480.7225
13796.0 26512.46
13798.0 26539.315
13800.0 26558.2375
13802.0 26566.1725
13804.0 26566.7825
13806.0 26563.12
13808.0 26555.185
13810.0 26539.925
13812.0 26517.9525
13814.0 26491.0975
13816.0 26459.36
13818.0 26425.18
13820.0 26393.4425
13822.0 26362.315
13824.0 26330.575
13826.0 26293.9525
13828.0 26252.4475
13830.0 26212.775
13832.0 26174.3225
13834.0 26138.9225
13836.0 26105.9625
13838.0 26074.225
13840.0 26044.9275
13842.0 26024.7875
13844.0 26015.6325
13846.0 26016.2425
13848.0 26026.0075
13850.0 26040.045
13852.0 26055.3025
13854.0 26071.7825
13856.0 26092.535
13858.0 26117.56
13860.0 26143.805
13862.0 26167.6075
13864.0 26187.1375
13866.0 26200.565
13868.0 26206.6675
13870.0 26209.7175
13872.0 26209.7175
13874.0 26206.055
13876.0 26195.0675
13878.0 26175.535
13880.0 26147.4575
13882.0 26114.4975
13884.0 26077.265
13886.0 26034.54
13888.0 25985.7125
13890.0 25929.56
13892.0 25870.965
13894.0 25813.5925
13896.0 25762.3225
13898.0 25716.5475
13900.0 25676.265
13902.0 25642.085
13904.0 25617.0625
13906.0 25609.13
13908.0 25620.1175
13910.0 25645.75
13912.0 25686.6425
13914.0 25739.7425
13916.0 25799.5575
13918.0 25863.645
13920.0 25928.3425
13922.0 25986.325
13924.0 26032.7125
13926.0 26065.67
13928.0 26082.76
13930.0 26085.8125
13932.0 26076.0475
13934.0 26051.0225
13936.0 26009.52
13938.0 25952.1475
13940.0 25881.3475
13942.0 25803.8325
13944.0 25725.7075
13946.0 25653.075
13948.0 25585.9375
13950.0 25526.125
13952.0 25474.855
13954.0 25431.52
13956.0 25399.1725
13958.0 25377.8125
13960.0 25369.2675
13962.0 25372.32
13964.0 25386.97
13966.0 25412.605
13968.0 25448.005
13970.0 25493.7825
13972.0 25542.61
13974.0 25590.8275
13976.0 25634.7725
13978.0 25676.885
13980.0 25717.7775
13982.0 25754.3975
13984.0 25783.6925
13986.0 25798.34
13988.0 25797.12
13990.0 25778.81
13992.0 25743.41
13994.0 25696.415
13996.0 25639.6525
13998.0 25579.2275
14000.0 25516.97
14002.0 25455.935
14004.0 25399.7825
14006.0 25349.125
14008.0 25307.62
14010.0 25277.7125
14012.0 25258.7925
14014.0 25254.52
14016.0 25264.285
14018.0 25282.595
14020.0 25308.84
14022.0 25339.9675
14024.0 25370.485
14026.0 25398.56
14028.0 25424.195
14030.0 25444.945
14032.0 25458.9825
14034.0 25466.9175
14036.0 25469.97
14038.0 25467.5275
14040.0 25461.425
14042.0 25449.8275
14044.0 25432.7375
14046.0 25413.205
14048.0 25390.6225
14050.0 25365.5975
14052.0 25344.235
14054.0 25325.315
14056.0 25309.445
14058.0 25291.135
14060.0 25269.7725
14062.0 25249.6325
14064.0 25232.5425
14066.0 25218.505
14068.0 25204.4675
14070.0 25191.65
14072.0 25181.275
14074.0 25171.5075
14076.0 25164.7925
14078.0 25158.6875
14080.0 25151.975
14082.0 25142.21
14084.0 25130.0025
14086.0 25120.2375
14088.0 25112.915
14090.0 25104.98
14092.0 25097.045
14094.0 25086.06
14096.0 25070.8
14098.0 25056.1525
14100.0 25045.7775
14102.0 25039.065
14104.0 25037.845
14106.0 25041.5075
14108.0 25049.4425
14110.0 25059.82
14112.0 25075.0775
14114.0 25091.5575
14116.0 25107.425
14118.0 25123.905
14120.0 25135.5
14122.0 25146.4875
14124.0 25155.6425
14126.0 25158.085
14128.0 25151.37
14130.0 25133.06
14132.0 25101.9325
14134.0 25063.48
14136.0 25020.7575
14138.0 24979.255
14140.0 24937.1425
14142.0 24893.1975
14144.0 24849.8625
14146.0 24810.19
14148.0 24780.8925
14150.0 24764.4125
14152.0 24758.3075
14154.0 24758.9175
14156.0 24763.8
14158.0 24772.345
14160.0 24786.3825
14162.0 24810.185
14164.0 24841.3125
14166.0 24873.66
14168.0 24901.125
14170.0 24924.3175
14172.0 24942.6275
14174.0 24959.7175
14176.0 24974.9775
14178.0 24982.91
14180.0 24979.8575
14182.0 24967.65
14184.0 24945.6775
14186.0 24913.94
14188.0 24875.4875
14190.0 24832.1525
14192.0 24784.545
14194.0 24738.1575
14196.0 24696.655
14198.0 24658.8125
14200.0 24630.1275
14202.0 24606.3225
14204.0 24587.4025
14206.0 24576.415
14208.0 24573.975
14210.0 24581.91
14212.0 24599.0
14214.0 24622.1925
14216.0 24647.215
14218.0 24670.4075
14220.0 24690.5475
14222.0 24707.6375
14224.0 24721.065
14226.0 24732.66
14228.0 24742.425
14230.0 24746.6975
14232.0 24746.6975
14234.0 24744.8675
14236.0 24740.595
14238.0 24734.4925
14240.0 24727.78
14242.0 24716.1825
14244.0 24700.315
14246.0 24680.1725
14248.0 24657.59
14250.0 24632.5675
14252.0 24605.1025
14254.0 24573.365
14256.0 24539.795
14258.0 24508.0575
14260.0 24478.15
14262.0 24448.2425
14264.0 24421.9975
14266.0 24403.0775
14268.0 24391.48
14270.0 24386.5975
14272.0 24387.82
14274.0 24387.21
14276.0 24387.21
14278.0 24387.21
14280.0 24387.82
14282.0 24389.04
14284.0 24390.87
14286.0 24390.26
14288.0 24388.4275
14290.0 24385.985
14292.0 24382.3225
14294.0 24381.1025
14296.0 24382.935
14298.0 24389.0375
14300.0 24401.245
14302.0 24417.7225
14304.0 24436.645
14306.0 24456.1775
14308.0 24475.71
14310.0 24493.4125
14312.0 24505.62
14314.0 24509.8925
14316.0 24509.2825
14318.0 24500.1275
14320.0 24482.425
14322.0 24459.2325
14324.0 24431.155
14326.0 24397.5875
14328.0 24360.355
14330.0 24321.2925
14332.0 24281.62
14334.0 24242.5575
14336.0 24205.325
14338.0 24171.145
14340.0 24144.9
14342.0 24129.03
14344.0 24119.875
14346.0 24115.6025
14348.0 24114.9925
14350.0 24119.875
14352.0 24130.86
14354.0 24149.78
14356.0 24170.5325
14358.0 24196.7775
14360.0 24224.2425
14362.0 24255.37
14364.0 24286.4975
14366.0 24316.405
14368.0 24343.8725
14370.0 24365.845
14372.0 24384.7675
14374.0 24397.585
14376.0 24403.0775
14378.0 24398.195
14380.0 24383.5475
14382.0 24359.135
14384.0 24323.125
14386.0 24278.57
14388.0 24224.8575
14390.0 24164.4325
14392.0 24101.565
14394.0 24036.2575
14396.0 23970.34
14398.0 23908.695
14400.0 23853.765
14402.0 23807.3775
14404.0 23774.4175
14406.0 23757.3275
14408.0 23757.9375
14410.0 23777.4675
14412.0 23814.0875
14414.0 23867.1875
14416.0 23931.275
14418.0 24003.2975
14420.0 24075.93
14422.0 24143.68
14424.0 24205.935
14426.0 24259.035
14428.0 24301.15
14430.0 24328.005
14432.0 24337.7725
14434.0 24331.67
14436.0 24313.3575
14438.0 24280.3975
14440.0 24236.4525
14442.0 24180.3025
14444.0 24116.8275
14446.0 24050.91
14448.0 23983.77
14450.0 23919.0725
14452.0 23855.595
14454.0 23793.34
14456.0 23734.135
14458.0 23681.035
14460.0 23634.0375
14462.0 23594.975
14464.0 23569.34
14466.0 23556.5225
14468.0 23561.405
14470.0 23582.7675
14472.0 23619.39
14474.0 23671.88
14476.0 23737.7975
14478.0 23813.48
14480.0 23897.7075
14482.0 23986.21
14484.0 24068.6075
14486.0 24139.4075
14488.0 24193.12
14490.0 24225.47
14492.0 24236.4575
14494.0 24226.6925
14496.0 24196.785
14498.0 24147.9575
14500.0 24085.7025
14502.0 24014.2925
14504.0 23937.3875
14506.0 23859.8725
14508.0 23786.02
14510.0 23716.44
14512.0 23654.1825
14514.0 23605.355
14516.0 23566.2925
14518.0 23540.0475
14520.0 23524.1775
14522.0 23516.8525
14524.0 23515.63
14526.0 23518.6825
14528.0 23528.45
14530.0 23541.88
14532.0 23561.4125
14534.0 23583.995
14536.0 23610.8525
14538.0 23641.37
14540.0 23677.38
14542.0 23719.4925
14544.0 23764.6575
14546.0 23807.9925
14548.0 23842.1725
14550.0 23868.4175
14552.0 23887.3375
14554.0 23894.6625
14556.0 23889.78
14558.0 23873.3
14560.0 23840.3425
14562.0 23791.5125
14564.0 23735.3625
14566.0 23674.3275
14568.0 23614.5125
14570.0 23556.5275
14572.0 23502.205
14574.0 23452.765
14576.0 23411.2625
14578.0 23379.5225
14580.0 23355.7175
14582.0 23340.4575
14584.0 23334.355
14586.0 23334.355
14588.0 23339.2375
14590.0 23352.055
14592.0 23367.315
14594.0 23381.9625
14596.0 23399.6625
14598.0 23417.365
14600.0 23436.2875
14602.0 23460.7
14604.0 23488.1675
14606.0 23516.2425
14608.0 23540.655
14610.0 23564.4575
14612.0 23584.5975
14614.0 23604.1275
14616.0 23620.605
14618.0 23634.6425
14620.0 23639.525
14622.0 23631.5925
14624.0 23609.62
14626.0 23579.1025
14628.0 23544.9225
14630.0 23504.0275
14632.0 23455.81
14634.0 23404.54
14636.0 23351.44
14638.0 23298.34
14640.0 23249.51
14642.0 23207.3975
14644.0 23169.555
14646.0 23138.4275
14648.0 23110.9625
14650.0 23092.6525
14652.0 23084.7175
14654.0 23085.3275
14656.0 23095.0925
14658.0 23110.9625
14660.0 23135.9875
14662.0 23168.3375
14664.0 23203.7375
14666.0 23244.02
14668.0 23285.5225
14670.0 23325.195
14672.0 23364.2575
14674.0 23400.2675
14676.0 23428.955
14678.0 23446.655
14680.0 23452.7575
14682.0 23444.215
14684.0 23422.8525
14686.0 23391.725
14688.0 23353.8825
14690.0 23309.3275
14692.0 23262.33
14694.0 23209.84
14696.0 23156.13
14698.0 23102.42
14700.0 23055.4225
14702.0 23017.58
14704.0 22990.725
14706.0 22973.0225
14708.0 22960.815
14710.0 22955.9325
14712.0 22955.3225
14714.0 22961.425
14716.0 22973.0225
14718.0 22990.1125
14720.0 23009.035
14722.0 23029.175
14724.0 23050.5375
14726.0 23072.51
14728.0 23098.755
14730.0 23126.22
14732.0 23152.465
14734.0 23176.88
14736.0 23197.6325
14738.0 23215.3325
14740.0 23224.4875
14742.0 23224.4875
14744.0 23218.385
14746.0 23199.465
14748.0 23172.61
14750.0 23134.7675
14752.0 23088.38
14754.0 23035.89
14756.0 22982.79
14758.0 22930.91
14760.0 22882.0825
14762.0 22838.135
14764.0 22802.1225
14766.0 22775.2675
14768.0 22758.18
14770.0 22749.025
14772.0 22743.5325
14774.0 22744.7525
14776.0 22750.245
14778.0 22760.01
14780.0 22770.3875
14782.0 22780.1525
14784.0 22786.865
14786.0 22790.5275
14788.0 22792.97
14790.0 22792.97
14792.0 22794.19
14794.0 22796.0225
14796.0 22800.295
14798.0 22806.3975
14800.0 22814.9425
14802.0 22826.54
14804.0 22838.135
14806.0 22849.12
14808.0 22857.055
14810.0 22860.7175
14812.0 22859.4975
14814.0 22849.1225
14816.0 22828.98
14818.0 22800.9025
14820.0 22769.775
14822.0 22734.3725
14824.0 22695.31
14826.0 22655.6375
14828.0 22614.135
14830.0 22576.905
14832.0 22543.335
14834.0 22513.4275
14836.0 22485.35
14838.0 22465.2075
14840.0 22452.39
14842.0 22447.5075
14844.0 22449.95
14846.0 22458.495
14848.0 22470.7
14850.0 22487.79
14852.0 22511.595
14854.0 22539.6725
14856.0 22570.19
14858.0 22598.2675
14860.0 22623.9025
14862.0 22647.0975
14864.0 22666.63
14866.0 22681.89
14868.0 22689.825
14870.0 22692.2675
14872.0 22687.385
14874.0 22675.1775
14876.0 22655.645
14878.0 22629.4
14880.0 22598.2725
14882.0 22559.21
14884.0 22516.4875
14886.0 22472.5425
14888.0 22426.155
14890.0 22380.38
14892.0 22338.265
14894.0 22302.2525
14896.0 22274.1775
14898.0 22254.6475
14900.0 22240.61
14902.0 22235.1175
14904.0 22236.3375
14906.0 22244.8825
14908.0 22261.36
14910.0 22284.5525
14912.0 22313.85
14914.0 22348.03
14916.0 22387.7025
14918.0 22424.935
14920.0 22457.895
14922.0 22483.53
14924.0 22501.84
14926.0 22514.045
14928.0 22521.37
14930.0 22519.5375
14932.0 22506.1075
14934.0 22482.3025
14936.0 22448.7325
14938.0 22410.89
14940.0 22371.2175
14942.0 22329.1025
14944.0 22287.5975
14946.0 22247.315
14948.0 22210.6925
14950.0 22176.5125
14952.0 22150.8775
14954.0 22129.515
14956.0 22113.035
14958.0 22100.2175
14960.0 22091.6725
14962.0 22090.4525
14964.0 22095.335
14966.0 22105.1025
14968.0 22119.14
14970.0 22136.84
14972.0 22156.3725
14974.0 22177.125
14976.0 22197.265
14978.0 22216.795
14980.0 22236.325
14982.0 22252.195
14984.0 22264.4025
14986.0 22274.1675
14988.0 22281.4925
14990.0 22283.935
14992.0 22280.2725
14994.0 22270.5075
14996.0 22250.3675
14998.0 22224.1225
15000.0 22194.215
15002.0 22163.0875
15004.0 22131.35
15006.0 22097.1725
15008.0 22058.11
15010.0 22020.88
15012.0 21986.7025
15014.0 21958.6275
15016.0 21936.045
15018.0 21918.345
15020.0 21905.5275
15022.0 21899.4225
15024.0 21898.8125
15026.0 21903.085
15028.0 21912.2425
15030.0 21928.11
15032.0 21944.59
15034.0 21965.3425
15036.0 21986.095
15038.0 22009.29
15040.0 22028.21
15042.0 22045.3
15044.0 22056.285
15046.0 22061.1675
15048.0 22059.9475
15050.0 22052.6225
15052.0 22037.9725
15054.0 22019.0525
15056.0 21997.08
15058.0 21970.225
15060.0 21939.7075
15062.0 21910.41
15064.0 21881.7225
15066.0 21855.4775
15068.0 21829.8425
15070.0 21807.87
15072.0 21790.78
15074.0 21779.795
15076.0 21777.9625
15078.0 21783.455
15080.0 21793.22
15082.0 21804.8175
15084.0 21816.415
15086.0 21826.79
15088.0 21836.555
15090.0 21843.2675
15092.0 21846.3175
15094.0 21846.3175
15096.0 21845.0975
15098.0 21838.9925
15100.0 21828.615
15102.0 21813.9675
15104.0 21796.8775
15106.0 21782.8375
15108.0 21773.07
15110.0 21764.525
15112.0 21757.8125
15114.0 21751.7075
15116.0 21747.435
15118.0 21741.33
15120.0 21740.72
15122.0 21739.4975
15124.0 21740.1075
15126.0 21739.495
15128.0 21738.885
15130.0 21736.445
15132.0 21734.615
15134.0 21732.7825
15136.0 21729.12
15138.0 21727.29
15140.0 21724.8475
15142.0 21721.185
15144.0 21718.1325
15146.0 21713.86
15148.0 21709.5875
15150.0 21702.2625
15152.0 21693.1075
15154.0 21682.73
15156.0 21669.3025
15158.0 21653.4325
15160.0 21636.9525
15162.0 21621.0825
15164.0 21605.8225
15166.0 21593.005
15168.0 21583.24
15170.0 21578.3575
15172.0 21578.9675
15174.0 21581.41
15176.0 21585.0725
15178.0 21594.84
15180.0 21609.49
15182.0 21628.41
15184.0 21651.605
15186.0 21669.9175
15188.0 21679.685
15190.0 21685.18
15192.0 21686.4
15194.0 21684.57
15196.0 21680.2975
15198.0 21673.585
15200.0 21661.3775
15202.0 21647.34
15204.0 21630.8625
15206.0 21616.825
15208.0 21602.785
15210.0 21590.5775
15212.0 21577.76
15214.0 21563.1125
15216.0 21551.5175
15218.0 21541.14
15220.0 21532.595
15222.0 21524.66
15224.0 21514.285
15226.0 21504.52
15228.0 21493.535
15230.0 21486.21
15232.0 21480.1075
15234.0 21477.6675
15236.0 21477.6675
15238.0 21478.2775
15240.0 21481.33
15242.0 21486.2125
15244.0 21494.1475
15246.0 21504.5225
15248.0 21515.51
15250.0 21525.275
15252.0 21531.38
15254.0 21535.6525
15256.0 21539.315
15258.0 21537.4825
15260.0 21529.5475
15262.0 21515.51
15264.0 21495.9775
15266.0 21476.445
15268.0 21456.9125
15270.0 21436.77
15272.0 21416.0175
15274.0 21389.7725
15276.0 21360.475
15278.0 21331.7875
15280.0 21306.7625
15282.0 21284.79
15284.0 21267.0875
15286.0 21248.7775
15288.0 21234.13
15290.0 21221.9225
15292.0 21213.9875
15294.0 21211.545
15296.0 21210.935
15298.0 21212.7675
15300.0 21217.04
15302.0 21224.365
15304.0 21233.52
15306.0 21243.285
15308.0 21254.88
15310.0 21265.2575
15312.0 21275.6325
15314.0 21283.565
15316.0 21292.11
15318.0 21303.0975
15320.0 21314.695
15322.0 21325.0725
15324.0 21333.0075
15326.0 21337.28
15328.0 21339.11
15330.0 21339.72
15332.0 21341.55
15334.0 21339.7175
15336.0 21333.6125
15338.0 21323.8475
15340.0 21311.03
15342.0 21292.72
15344.0 21270.7475
15346.0 21244.5025
15348.0 21215.815
15350.0 21185.2975
15352.0 21156.0
15354.0 21131.585
15356.0 21112.665
15358.0 21099.2375
15360.0 21088.2525
15362.0 21081.54
15364.0 21078.49
15366.0 21080.9325
15368.0 21087.035
15370.0 21094.97
15372.0 21102.905
15374.0 21110.23
15376.0 21114.5025
15378.0 21115.1125
15380.0 21113.8925
15382.0 21109.62
15384.0 21106.5675
15386.0 21104.7375
15388.0 21102.9075
15390.0 21097.4125
15392.0 21088.8675
15394.0 21079.1025
15396.0 21066.285
15398.0 21051.635
15400.0 21034.545
15402.0 21016.8425
15404.0 20995.48
15406.0 20972.2875
15408.0 20949.705
15410.0 20925.9025
15412.0 20900.2675
15414.0 20877.685
15416.0 20857.545
15418.0 20840.455
15420.0 20827.6375
15422.0 20823.365
15424.0 20825.8075
15426.0 20832.5225
15428.0 20844.73
15430.0 20859.9875
15432.0 20877.0775
15434.0 20896.61
15436.0 20916.14
15438.0 20933.23
15440.0 20949.7075
15442.0 20960.6925
15444.0 20967.405
15446.0 20969.845
15448.0 20969.235
15450.0 20965.5725
15452.0 20959.47
15454.0 20949.705
15456.0 20938.1075
15458.0 20927.7325
15460.0 20915.525
15462.0 20902.7075
15464.0 20887.45
15466.0 20869.75
15468.0 20850.83
15470.0 20833.7425
15472.0 20818.485
15474.0 20803.2275
15476.0 20787.97
15478.0 20772.7125
15480.0 20758.0625
15482.0 20743.415
15484.0 20731.8175
15486.0 20720.8325
15488.0 20708.625
15490.0 20699.47
15492.0 20692.1475
15494.0 20686.655
15496.0 20683.6025
15498.0 20684.2125
15500.0 20687.265
15502.0 20689.7075
15504.0 20692.1475
15506.0 20696.4175
15508.0 20700.69
15510.0 20707.405
15512.0 20712.8975
15514.0 20717.17
15516.0 20718.3925
15518.0 20716.56
15520.0 20711.6775
15522.0 20705.575
15524.0 20695.2
15526.0 20680.5525
15528.0 20661.6325
15530.0 20640.27
15532.0 20618.2975
15534.0 20598.765
15536.0 20582.895
15538.0 20565.195
15540.0 20548.105
15542.0 20532.235
15544.0 20519.4175
15546.0 20509.65
15548.0 20501.105
15550.0 20492.56
15552.0 20485.235
15554.0 20479.13
15556.0 20474.2475
15558.0 20469.975
15560.0 20466.925
15562.0 20464.485
15564.0 20465.095
15566.0 20470.5875
15568.0 20482.795
15570.0 20496.8325
15572.0 20513.9225
15574.0 20531.6225
15576.0 20548.1025
15578.0 20562.14
15580.0 20574.345
15582.0 20584.11
15584.0 20587.7725
15586.0 20585.9425
15588.0 20578.62
15590.0 20563.9725
15592.0 20545.0525
15594.0 20521.8575
15596.0 20496.2225
15598.0 20469.9775
15600.0 20443.1225
15602.0 20417.4875
15604.0 20396.125
15606.0 20380.865
15608.0 20373.54
15610.0 20368.6575
15612.0 20367.435
15614.0 20364.995
15616.0 20364.995
15618.0 20368.655
15620.0 20374.76
15622.0 20382.085
15624.0 20388.1875
15626.0 20391.85
15628.0 20394.9
15630.0 20399.1725
15632.0 20403.445
15634.0 20405.8875
15636.0 20408.3275
15638.0 20410.77
15640.0 20410.77
15642.0 20411.99
15644.0 20412.6
15646.0 20408.3275
15648.0 20401.0025
15650.0 20391.2375
15652.0 20379.03
15654.0 20365.6025
15656.0 20351.565
15658.0 20339.36
15660.0 20322.27
15662.0 20304.57
15664.0 20288.7
15666.0 20271.61
15668.0 20256.35
15670.0 20242.31
15672.0 20230.7125
15674.0 20220.3375
15676.0 20212.4025
15678.0 20203.8575
15680.0 20198.975
15682.0 20196.5325
15684.0 20197.1425
15686.0 20201.415
15688.0 20203.8575
15690.0 20209.35
15692.0 20216.675
15694.0 20228.8825
15696.0 20240.48
15698.0 20252.0775
15700.0 20261.8425
15702.0 20269.7775
15704.0 20275.2725
15706.0 20279.545
15708.0 20278.935
15710.0 20272.22
15712.0 20260.0125
15714.0 20244.1425
15716.0 20223.39
15718.0 20200.195
15720.0 20175.78
15722.0 20148.925
15724.0 20118.4075
15726.0 20090.94
15728.0 20063.475
15730.0 20039.06
15732.0 20018.3075
15734.0 20000.6075
15736.0 19986.5675
15738.0 19972.5275
15740.0 19962.7625
15742.0 19954.8275
15744.0 19949.945
15746.0 19950.555
15748.0 19951.775
15750.0 19953.6075
15752.0 19956.05
15754.0 19960.3225
15756.0 19966.425
15758.0 19978.6325
15760.0 19989.62
15762.0 19999.9975
15764.0 20007.9325
15766.0 20011.595
15768.0 20014.035
15770.0 20014.645
15772.0 20011.5925
15774.0 20003.6575
15776.0 19992.06
15778.0 19976.19
15780.0 19955.4375
15782.0 19931.6325
15784.0 19906.6075
15786.0 19879.1425
15788.0 19852.2875
15790.0 19828.4825
15792.0 19806.51
15794.0 19786.98
15796.0 19770.5025
15798.0 19756.465
15800.0 19745.4775
15802.0 19739.3725
15804.0 19737.5425
15806.0 19737.5425
15808.0 19740.5925
15810.0 19746.085
15812.0 19750.9675
15814.0 19755.85
15816.0 19760.7325
15818.0 19767.4475
15820.0 19778.435
15822.0 19791.2525
15824.0 19804.07
15826.0 19814.4475
15828.0 19823.6025
15830.0 19830.9275
15832.0 19833.98
15834.0 19832.76
15836.0 19826.6575
15838.0 19810.1775
15840.0 19789.425
15842.0 19765.01
15844.0 19736.3225
15846.0 19705.195
15848.0 19672.2375
15850.0 19639.28
15852.0 19608.7625
15854.0 19581.905
15856.0 19558.7125
15858.0 19540.4025
15860.0 19529.4175
15862.0 19523.925
15864.0 19523.315
15866.0 19528.1975
15868.0 19537.9625
15870.0 19549.56
15872.0 19564.2075
15874.0 19579.465
15876.0 19595.9425
15878.0 19613.6425
15880.0 19629.5125
15882.0 19641.72
15884.0 19650.875
15886.0 19657.59
15888.0 19660.0325
15890.0 19658.2025
15892.0 19650.8775
15894.0 19640.5
15896.0 19625.8525
15898.0 19606.32
15900.0 19580.685
15902.0 19548.335
15904.0 19512.325
15906.0 19476.925
15908.0 19440.305
15910.0 19405.515
15912.0 19374.9975
15914.0 19348.1425
15916.0 19325.56
15918.0 19313.965
15920.0 19307.86
15922.0 19308.47
15924.0 19317.015
15926.0 19331.6625
15928.0 19351.8025
15930.0 19375.605
15932.0 19399.41
15934.0 19420.7725
15936.0 19440.915
15938.0 19458.005
15940.0 19470.2125
15942.0 19478.7575
15944.0 19483.03
15946.0 19482.42
15948.0 19478.1475
15950.0 19472.045
15952.0 19464.7225
15954.0 19454.9575
15956.0 19443.9725
15958.0 19429.325
15960.0 19415.2875
15962.0 19400.64
15964.0 19385.38
15966.0 19368.29
15968.0 19351.81
15970.0 19332.28
15972.0 19315.1925
15974.0 19293.83
15976.0 19272.4675
15978.0 19251.7175
15980.0 19232.185
15982.0 19218.7575
15984.0 19207.77
15986.0 19198.0025
15988.0 19193.12
15990.0 19193.12
15992.0 19197.3925
15994.0 19207.1575
15996.0 19222.415
15998.0 19237.6725
16000.0 19255.985
16002.0 19273.075
16004.0 19290.165
16006.0 19302.9825
16008.0 19310.9175
16010.0 19313.36
16012.0 19310.9175
16014.0 19306.645
16016.0 19296.2675
16018.0 19282.23
16020.0 19265.14
16022.0 19245.0
16024.0 19221.805
16026.0 19198.0
16028.0 19172.365
16030.0 19145.51
16032.0 19118.0425
16034.0 19093.0175
16036.0 19069.825
16038.0 19049.6825
16040.0 19030.76
16042.0 19016.11
16044.0 19003.905
16046.0 18996.58
16048.0 18991.0875
16050.0 18991.0875
16052.0 18994.7475
16054.0 19004.515
16056.0 19017.3325
16058.0 19033.2
16060.0 19050.9
16062.0 19070.4325
16064.0 19089.965
16066.0 19109.4975
16068.0 19127.1975
16070.0 19141.845
16072.0 19153.44
16074.0 19158.9325
16076.0 19157.7125
16078.0 19152.83
16080.0 19142.4525
16082.0 19127.805
16084.0 19108.275
16086.0 19085.6925
16088.0 19061.28
16090.0 19035.645
16092.0 19011.2325
16094.0 18983.7675
16096.0 18959.355
16098.0 18939.2125
16100.0 18919.68
16102.0 18903.81
16104.0 18892.215
16106.0 18884.8925
16108.0 18882.4525
16110.0 18884.8925
16112.0 18890.3875
16114.0 18899.5425
16116.0 18909.3075
16118.0 18920.905
16120.0 18934.945
16122.0 18947.7625
16124.0 18959.9675
16126.0 18970.955
16128.0 18983.1625
16130.0 18989.875
16132.0 18992.3175
16134.0 18993.5375
16136.0 18992.3175
16138.0 18988.045
16140.0 18981.3325
16142.0 18971.5675
16144.0 18958.14
16146.0 18942.27
16148.0 18924.57
16150.0 18905.65
16152.0 18884.2875
16154.0 18863.535
16156.0 18840.9525
16158.0 18816.54
16160.0 18792.7375
16162.0 18769.5425
16164.0 18747.57
16166.0 18729.26
16168.0 18714.61
16170.0 18703.6225
16172.0 18693.855
16174.0 18690.1925
16176.0 18689.58
16178.0 18690.19
16180.0 18698.125
16182.0 18708.5
16184.0 18721.9275
16186.0 18739.0175
16188.0 18756.1075
16190.0 18773.8075
16192.0 18792.7275
16194.0 18810.4275
16196.0 18828.7375
16198.0 18843.995
16200.0 18854.37
16202.0 18861.085
16204.0 18866.58
16206.0 18865.36
16208.0 18857.425
16210.0 18847.05
16212.0 18833.6225
16214.0 18814.7025
16216.0 18792.73
16218.0 18770.1475
16220.0 18745.1225
16222.0 18718.875
16224.0 18696.29
16226.0 18676.1475
16228.0 18657.8375
16230.0 18641.3575
16232.0 18627.32
16234.0 18617.555
16236.0 18609.62
16238.0 18605.9575
16240.0 18605.9575
16242.0 18610.8425
16244.0 18617.555
16246.0 18626.71
16248.0 18637.6975
16250.0 18651.125
16252.0 18666.385
16254.0 18682.865
16256.0 18701.7875
16258.0 18718.2675
16260.0 18730.475
16262.0 18739.63
16264.0 18745.7325
16266.0 18745.7325
16268.0 18742.07
16270.0 18734.135
16272.0 18720.7075
16274.0 18703.0075
16276.0 18682.255
16278.0 18660.8925
16280.0 18640.75
16282.0 18622.44
16284.0 18604.74
16286.0 18591.9225
16288.0 18583.3775
16290.0 18579.715
16292.0 18579.715
16294.0 18583.9875
16296.0 18590.7
16298.0 18600.465
16300.0 18611.4525
16302.0 18623.05
16304.0 18635.2575
16306.0 18646.855
16308.0 18658.45
16310.0 18670.6575
16312.0 18684.085
16314.0 18694.46
16316.0 18707.2775
16318.0 18719.485
16320.0 18731.6925
16322.0 18742.6775
16324.0 18751.8325
16326.0 18758.545
16328.0 18762.8175
16330.0 18765.87
16332.0 18766.48
16334.0 18764.65
16336.0 18758.545
16338.0 18751.8325
16340.0 18743.2875
16342.0 18734.7425
16344.0 18726.9333333
16346.0 18721.2815789
16348.0 18717.9648649
16350.0 18717.1777778
16352.0 18718.4371429
16354.0 18723.3617647
16356.0 18728.5848485
16358.0 18734.134375
16360.0 18739.2548387
16362.0 18743.9
16364.0 18748.0241379
16366.0 18752.4428571
16368.0 18755.3814815
16370.0 18759.4846154
16372.0 18763.916
16374.0 18770.75
16376.0 18780.3043478
16378.0 18790.7272727
16380.0 18807.952381
16382.0 18830.565
